#time,accel_x,accel_y,accel_z
566.666643,0.000000,-8808.450710,919.314598
566.666970,-370.102971,-9104.533087,842.705048
566.667298,-148.041188,-9252.574275,536.266849
566.667626,-740.205942,-9030.512492,536.266849
566.667954,0.000000,-8808.450710,612.876398
566.668281,-74.020594,-8660.409521,612.876398
566.668609,-296.082377,-9030.512492,383.047749
566.668937,-518.144159,-9178.553681,459.657299
566.669265,-296.082377,-9030.512492,689.485948
566.669592,-222.061783,-9030.512492,612.876398
566.669920,0.000000,-9178.553681,306.438199
566.670248,-444.123565,-9178.553681,689.485948
566.670576,-370.102971,-9178.553681,536.266849
566.670903,-370.102971,-9030.512492,919.314598
566.671231,-296.082377,-8956.491898,612.876398
566.671559,0.000000,-9474.636058,306.438199
566.671887,-222.061783,-9030.512492,842.705048
566.672214,-296.082377,-9178.553681,689.485948
566.672542,-296.082377,-8956.491898,459.657299
566.672870,-296.082377,-9178.553681,689.485948
566.673198,-222.061783,-9030.512492,536.266849
566.673525,0.000000,-9104.533087,689.485948
566.673853,0.000000,-9178.553681,306.438199
566.674181,-222.061783,-8956.491898,536.266849
566.674508,0.000000,-9252.574275,612.876398
566.674836,0.000000,-9178.553681,536.266849
566.675164,-222.061783,-9178.553681,689.485948
566.675492,0.000000,-9178.553681,459.657299
566.675819,-222.061783,-9326.594869,383.047749
566.676147,-592.164754,-9326.594869,76.609550
566.676475,-1258.350101,-9548.656652,0.000000
566.676803,-1332.370696,-9400.615463,-459.657299
566.677130,-814.226536,-9178.553681,-306.438199
566.677458,-592.164754,-8882.471304,-306.438199
566.677786,-592.164754,-8734.430116,-306.438199
566.678114,-740.205942,-9178.553681,-612.876398
566.678441,-1036.288319,-8882.471304,-766.095498
566.678769,-1332.370696,-9030.512492,-1225.752797
566.679097,-1332.370696,-8956.491898,-1302.362347
566.679425,-1036.288319,-9178.553681,-1378.971896
566.679752,-592.164754,-9474.636058,-1532.190996
566.680080,-74.020594,-8956.491898,-1149.143247
566.680408,0.000000,-8808.450710,-1532.190996
566.680735,0.000000,-9252.574275,-1455.581446
566.681063,0.000000,-9400.615463,-1838.629195
566.681391,0.000000,-9400.615463,-1915.238745
566.681719,148.041188,-9326.594869,-1225.752797
566.682046,740.205942,-9326.594869,-1608.800546
566.682374,296.082377,-9178.553681,-1685.410096
566.682702,518.144159,-9474.636058,-1608.800546
566.683030,370.102971,-9400.615463,-1685.410096
566.683357,370.102971,-9326.594869,-1685.410096
566.683685,370.102971,-9400.615463,-2068.457845
566.684013,148.041188,-8882.471304,-1915.238745
566.684341,148.041188,-9326.594869,-1838.629195
566.684668,0.000000,-9104.533087,-1915.238745
566.684996,222.061783,-9252.574275,-1991.848295
566.685324,148.041188,-8660.409521,-995.924147
566.685652,74.020594,-9252.574275,-1915.238745
566.685979,-592.164754,-9326.594869,-2068.457845
566.686307,-814.226536,-8882.471304,-1762.019645
566.686635,-1110.308913,-9178.553681,-2221.676944
566.686962,-962.267725,-8956.491898,-2374.896044
566.687290,-1332.370696,-9178.553681,-2374.896044
566.687618,-1554.432478,-9030.512492,-2681.334243
566.687946,-1998.556043,-8956.491898,-2834.553343
566.688273,-2146.597232,-8882.471304,-2987.772442
566.688601,-2146.597232,-8882.471304,-3447.429741
566.688929,-2146.597232,-8216.285956,-3753.867940
566.689257,-1998.556043,-8882.471304,-4060.306139
566.689584,-1850.514855,-8956.491898,-3983.696590
566.689912,-1628.453072,-8882.471304,-3983.696590
566.690240,-1110.308913,-9104.533087,-3907.087040
566.690568,-666.185348,-8956.491898,-3447.429741
566.690895,222.061783,-9326.594869,-3830.477490
566.691223,518.144159,-9104.533087,-3447.429741
566.691551,1332.370696,-9030.512492,-2834.553343
566.691879,1850.514855,-8808.450710,-2374.896044
566.692206,2368.659014,-9030.512492,-1838.629195
566.692534,2072.576638,-9326.594869,-1991.848295
566.692862,1406.391290,-9696.697840,-2145.067394
566.693189,592.164754,-10214.842000,-2604.724693
566.693517,-444.123565,-10288.862594,-3294.210641
566.693845,-1258.350101,-10510.924376,-3753.867940
566.694173,-1406.391290,-10288.862594,-3830.477490
566.694500,-1998.556043,-9696.697840,-4979.620737
566.694828,-962.267725,-8956.491898,-4749.792088
566.695156,222.061783,-7994.224174,-4519.963438
566.695484,1998.556043,-7476.080014,-3600.648841
566.695811,2664.741391,-7179.997637,-2681.334243
566.696139,3034.844362,-7402.059420,-2451.505594
566.696467,1924.535449,-8364.327145,-1991.848295
566.696795,74.020594,-9326.594869,-1915.238745
566.697122,-1702.473667,-10362.883188,-1991.848295
566.697450,-3034.844362,-10881.027347,-2681.334243
566.697778,-3849.070898,-10881.027347,-2757.943793
566.698106,-3034.844362,-10288.862594,-2681.334243
566.698433,-1332.370696,-9252.574275,-2451.505594
566.698761,1110.308913,-7846.182985,-1455.581446
566.699089,4737.318029,-6069.688724,842.705048
566.699416,9400.615463,-5329.482782,1838.629195
566.699744,11029.068536,-5551.544565,3753.867940
566.700072,9030.512492,-7179.997637,4596.572988
566.700400,3627.009116,-10881.027347,4060.306139
566.700727,-3404.947333,-13323.706956,2145.067394
566.701055,-8882.471304,-14434.015869,-153.219100
566.701383,-11621.233289,-14878.139434,-995.924147
566.701711,-10584.944971,-13249.686362,-2298.286494
566.702038,-9474.636058,-11177.109724,-1838.629195
566.702366,-2294.638420,-8734.430116,-1762.019645
566.702694,-2442.679609,-5625.565159,-1532.190996
566.703022,-444.123565,-4515.256246,-3064.381992
566.703349,-3330.926739,-5699.585753,-4903.011187
566.703677,-9178.553681,-6957.935855,-7660.954980
566.704005,-12065.356855,-8734.430116,-9346.365076
566.704333,-14730.098246,-8956.491898,-9882.631924
566.704660,-11769.274478,-7846.182985,-9806.022374
566.704988,-7105.977043,-7698.141797,-8044.002729
566.705316,148.041188,-6069.688724,-6281.983084
566.705644,3182.885551,-6809.894666,-4519.963438
566.705971,6069.688724,-8438.347739,-4519.963438
566.706299,3701.029710,-8956.491898,-5515.887586
566.706627,2442.679609,-10955.047942,-5822.325785
566.706954,3627.009116,-10584.944971,-6894.859482
566.707282,6809.894666,-10436.903782,-5362.668486
566.707610,11473.192101,-10436.903782,-2681.334243
566.707938,12213.398043,-9400.615463,-2374.896044
566.708265,13249.686362,-10214.842000,-689.485948
566.708593,12509.480420,-10288.862594,-1302.362347
566.708921,11843.295072,-9030.512492,-2221.676944
566.709249,12953.603985,-9474.636058,-2221.676944
566.709576,10362.883188,-11547.212695,-1915.238745
566.709904,6735.874072,-12287.418637,-3140.991542
566.710232,-1776.494261,-14359.995275,-4596.572988
566.710560,-9622.677246,-14730.098246,-6894.859482
566.710887,-10288.862594,-11103.089130,-7814.174080
566.711215,-5329.482782,-6217.729913,-6894.859482
566.711543,222.061783,-3182.885551,-4519.963438
566.711871,3923.091493,-2072.576638,-2757.943793
566.712198,3034.844362,-2812.782580,-919.314598
566.712526,-888.247130,-3775.050304,-766.095498
566.712854,-2664.741391,-3849.070898,-1302.362347
566.713181,-6291.750507,-6439.791695,-1225.752797
566.713509,-5477.523971,-7846.182985,-689.485948
566.713837,-7105.977043,-9326.594869,383.047749
566.714165,-6069.688724,-9844.739029,2145.067394
566.714492,-3627.009116,-9474.636058,4366.744339
566.714820,-2590.720797,-8068.244768,4673.182538
566.715148,-740.205942,-8068.244768,3370.820191
566.715476,-1998.556043,-10436.903782,1302.362347
566.715803,-4441.235652,-11917.315666,-459.657299
566.716131,-7031.956449,-11547.212695,-1608.800546
566.716459,-4737.318029,-9622.677246,-612.876398
566.716787,-2146.597232,-7994.224174,-612.876398
566.717114,592.164754,-8290.306550,536.266849
566.717442,74.020594,-9474.636058,536.266849
566.717770,-2368.659014,-9548.656652,536.266849
566.718098,-3849.070898,-9104.533087,-229.828649
566.718425,-3552.988522,-9178.553681,0.000000
566.718753,-3256.906145,-11103.089130,-919.314598
566.719081,-3404.947333,-11695.253884,-2145.067394
566.719408,-3701.029710,-10955.047942,-2221.676944
566.719736,-2590.720797,-8882.471304,-2451.505594
566.720064,-888.247130,-6957.935855,-1991.848295
566.720392,1110.308913,-5921.647536,-1685.410096
566.720719,2072.576638,-7254.018232,-3370.820191
566.721047,2812.782580,-7105.977043,-4213.525239
566.721375,4367.215058,-8142.265362,-4213.525239
566.721703,5773.606348,-8216.285956,-3370.820191
566.722030,4145.153275,-9696.697840,-3600.648841
566.722358,3997.112087,-12731.542202,-3600.648841
566.722686,3108.864956,-14285.974681,-3753.867940
566.723014,2368.659014,-14211.954086,-3600.648841
566.723341,2220.617826,-12731.542202,-3983.696590
566.723669,1258.350101,-11917.315666,-3753.867940
566.723997,1554.432478,-11399.171507,-3064.381992
566.724325,2220.617826,-11029.068536,-2911.162892
566.724652,1702.473667,-9696.697840,-3370.820191
566.724980,444.123565,-8882.471304,-4060.306139
566.725307,-740.205942,-8290.306550,-4826.401637
566.725635,-1776.494261,-7920.203579,-5286.058936
566.725963,-1702.473667,-6957.935855,-5592.497135
566.726290,-370.102971,-6513.812290,-5056.230287
566.726618,518.144159,-5699.585753,-3907.087040
566.726946,1480.411884,-4367.215058,-2068.457845
566.727273,1702.473667,-5551.544565,-1532.190996
566.727601,148.041188,-7179.997637,-1302.362347
566.727928,-1702.473667,-8956.491898,-1838.629195
566.728256,-1924.535449,-9844.739029,-1838.629195
566.728584,-1850.514855,-9474.636058,-1532.190996
566.728911,-2738.761985,-9696.697840,-995.924147
566.729239,-1480.411884,-9252.574275,-383.047749
566.729566,-518.144159,-7846.182985,0.000000
566.729894,518.144159,-7846.182985,0.000000
566.730222,-814.226536,-8734.430116,-229.828649
566.730549,-3108.864956,-9548.656652,-2374.896044
566.730877,-2886.803174,-8586.388927,-2451.505594
566.731204,-1480.411884,-9104.533087,-2374.896044
566.731532,-444.123565,-8660.409521,-1608.800546
566.731860,2220.617826,-8068.244768,0.000000
566.732187,3552.988522,-6809.894666,612.876398
566.732515,3997.112087,-6365.771101,1991.848295
566.732842,1406.391290,-7772.162391,1762.019645
566.733170,-740.205942,-8956.491898,1149.143247
566.733498,-2146.597232,-9104.533087,0.000000
566.733825,-2590.720797,-9178.553681,689.485948
566.734153,-2294.638420,-9770.718434,1378.971896
566.734481,-740.205942,-8512.368333,1762.019645
566.734808,1850.514855,-7402.059420,2145.067394
566.735136,1850.514855,-8364.327145,1608.800546
566.735463,-444.123565,-9104.533087,459.657299
566.735791,-3108.864956,-9178.553681,-2298.286494
566.736119,-3478.967927,-9326.594869,-2681.334243
566.736446,-3404.947333,-9844.739029,-2298.286494
566.736774,-2664.741391,-10288.862594,-1072.533697
566.737101,148.041188,-10436.903782,383.047749
566.737429,2220.617826,-10510.924376,1915.238745
566.737757,1332.370696,-10881.027347,1915.238745
566.738084,-444.123565,-11473.192101,1378.971896
566.738412,-2368.659014,-11325.150913,306.438199
566.738739,-2664.741391,-11177.109724,766.095498
566.739067,-2294.638420,-10584.944971,1378.971896
566.739395,0.000000,-8956.491898,1838.629195
566.739722,2146.597232,-7550.100608,2604.724693
566.740050,2886.803174,-8882.471304,3677.258390
566.740377,1110.308913,-9104.533087,2681.334243
566.740705,0.000000,-8808.450710,1149.143247
566.741033,-666.185348,-9030.512492,76.609550
566.741360,-1258.350101,-9770.718434,76.609550
566.741688,-1184.329507,-9844.739029,0.000000
566.742016,370.102971,-9474.636058,536.266849
566.742343,2072.576638,-9252.574275,1762.019645
566.742671,888.247130,-11029.068536,2221.676944
566.742998,-1702.473667,-11695.253884,1149.143247
566.743326,-3478.967927,-10881.027347,-153.219100
566.743654,-3849.070898,-11399.171507,-1072.533697
566.743981,-3701.029710,-10658.965565,-1455.581446
566.744309,-3552.988522,-9622.677246,-1915.238745
566.744636,-1554.432478,-8512.368333,-842.705048
566.744964,-592.164754,-8586.388927,-153.219100
566.745292,-1258.350101,-8364.327145,-689.485948
566.745619,-740.205942,-7698.141797,-766.095498
566.745947,-1184.329507,-7772.162391,-1915.238745
566.746274,-296.082377,-8364.327145,-2145.067394
566.746602,148.041188,-8068.244768,-1532.190996
566.746930,2072.576638,-7031.956449,-919.314598
566.747257,3627.009116,-7402.059420,306.438199
566.747585,3701.029710,-8068.244768,306.438199
566.747912,2812.782580,-9030.512492,919.314598
566.748240,1776.494261,-8956.491898,229.828649
566.748568,1924.535449,-9844.739029,842.705048
566.748895,1924.535449,-9178.553681,1302.362347
566.749223,2664.741391,-8808.450710,919.314598
566.749551,3330.926739,-8734.430116,1608.800546
566.749878,3034.844362,-9770.718434,1915.238745
566.750206,2072.576638,-9474.636058,1838.629195
566.750533,370.102971,-9326.594869,1378.971896
566.750861,0.000000,-9696.697840,1455.581446
566.751189,-296.082377,-9696.697840,1225.752797
566.751516,-592.164754,-8808.450710,1072.533697
566.751844,-666.185348,-7772.162391,1378.971896
566.752171,-962.267725,-8216.285956,1915.238745
566.752499,-2368.659014,-7624.121203,1915.238745
566.752827,-4071.132681,-7179.997637,1149.143247
566.753154,-4737.318029,-7846.182985,689.485948
566.753482,-4811.338623,-8068.244768,306.438199
566.753809,-4145.153275,-7846.182985,459.657299
566.754137,-3701.029710,-6513.812290,76.609550
566.754465,-2442.679609,-6365.771101,689.485948
566.754792,-2516.700203,-7105.977043,842.705048
566.755120,-2442.679609,-7105.977043,383.047749
566.755448,-2146.597232,-7698.141797,0.000000
566.755775,-592.164754,-9252.574275,612.876398
566.756103,0.000000,-9326.594869,612.876398
566.756430,888.247130,-9992.780217,1838.629195
566.756758,1702.473667,-10140.821405,1915.238745
566.757086,1332.370696,-11917.315666,2298.286494
566.757413,0.000000,-12065.356855,1378.971896
566.757741,-666.185348,-11029.068536,459.657299
566.758068,370.102971,-11029.068536,0.000000
566.758396,518.144159,-10955.047942,383.047749
566.758724,1628.453072,-9770.718434,689.485948
566.759051,2960.823768,-9326.594869,1072.533697
566.759379,3701.029710,-9474.636058,1762.019645
566.759706,1702.473667,-9252.574275,919.314598
566.760034,-222.061783,-10066.800811,76.609550
566.760362,-222.061783,-10214.842000,-689.485948
566.760689,-592.164754,-10955.047942,0.000000
566.761017,-222.061783,-10362.883188,306.438199
566.761344,1924.535449,-9252.574275,612.876398
566.761672,2146.597232,-9474.636058,1608.800546
566.762000,666.185348,-10732.986159,1149.143247
566.762327,-1184.329507,-11029.068536,383.047749
566.762655,-2442.679609,-10436.903782,-1149.143247
566.762983,-2664.741391,-10362.883188,-612.876398
566.763310,-1776.494261,-10807.006753,-1149.143247
566.763638,-1184.329507,-9844.739029,-689.485948
566.763965,0.000000,-8956.491898,153.219100
566.764293,518.144159,-8808.450710,766.095498
566.764621,0.000000,-8882.471304,612.876398
566.764948,-1332.370696,-8586.388927,0.000000
566.765276,-1850.514855,-9400.615463,-919.314598
566.765603,-1998.556043,-10140.821405,-612.876398
566.765931,-888.247130,-9030.512492,76.609550
566.766259,148.041188,-8438.347739,995.924147
566.766586,1332.370696,-9474.636058,2068.457845
566.766914,0.000000,-9030.512492,2221.676944
566.767241,-1036.288319,-8882.471304,1532.190996
566.767569,-1998.556043,-8142.265362,153.219100
566.767897,-1924.535449,-8364.327145,-153.219100
566.768224,-1554.432478,-8068.244768,76.609550
566.768552,370.102971,-7179.997637,306.438199
566.768879,2442.679609,-6661.853478,1225.752797
566.769207,3034.844362,-7179.997637,2374.896044
566.769535,2146.597232,-7402.059420,1762.019645
566.769862,370.102971,-8660.409521,995.924147
566.770190,592.164754,-8956.491898,1225.752797
566.770518,0.000000,-9178.553681,995.924147
566.770845,666.185348,-9178.553681,1608.800546
566.771173,1702.473667,-9252.574275,2451.505594
566.771500,814.226536,-9548.656652,3447.429741
566.771828,-148.041188,-9474.636058,2911.162892
566.772156,-1924.535449,-8438.347739,1378.971896
566.772483,-2442.679609,-8734.430116,0.000000
566.772811,-3256.906145,-8734.430116,-612.876398
566.773138,-2590.720797,-6957.935855,-842.705048
566.773466,-1924.535449,-5699.585753,-995.924147
566.773794,-296.082377,-5921.647536,0.000000
566.774121,-1258.350101,-6439.791695,0.000000
566.774449,-1184.329507,-6661.853478,0.000000
566.774776,-2220.617826,-7105.977043,-995.924147
566.775104,-1776.494261,-8956.491898,-766.095498
566.775432,-2220.617826,-9696.697840,-153.219100
566.775759,-888.247130,-9178.553681,536.266849
566.776087,740.205942,-9400.615463,1762.019645
566.776414,814.226536,-10658.965565,2451.505594
566.776742,0.000000,-10658.965565,1532.190996
566.777070,-888.247130,-10140.821405,1149.143247
566.777397,-962.267725,-11177.109724,0.000000
566.777725,-814.226536,-10436.903782,-689.485948
566.778053,740.205942,-10362.883188,-689.485948
566.778380,2146.597232,-9326.594869,-229.828649
566.778708,2812.782580,-9474.636058,689.485948
566.779035,2738.761985,-9770.718434,689.485948
566.779363,1480.411884,-9252.574275,383.047749
566.779691,1924.535449,-9844.739029,306.438199
566.780018,1776.494261,-10658.965565,766.095498
566.780346,2146.597232,-9844.739029,612.876398
566.780673,1702.473667,-10955.047942,2068.457845
566.781001,666.185348,-11991.336260,2604.724693
566.781329,-1554.432478,-12435.459826,2604.724693
566.781656,-3404.947333,-11547.212695,1378.971896
566.781984,-3256.906145,-10807.006753,76.609550
566.782311,-2738.761985,-10584.944971,-153.219100
566.782639,-2368.659014,-9474.636058,-766.095498
566.782967,-1628.453072,-7846.182985,-995.924147
566.783294,0.000000,-7402.059420,-689.485948
566.783622,0.000000,-7846.182985,-153.219100
566.783949,-740.205942,-7402.059420,-1072.533697
566.784277,-962.267725,-7772.162391,-1838.629195
566.784605,-296.082377,-8956.491898,-995.924147
566.784932,0.000000,-9326.594869,76.609550
566.785260,1332.370696,-9178.553681,1838.629195
566.785588,1406.391290,-8808.450710,2987.772442
566.785915,1628.453072,-10807.006753,3907.087040
566.786243,-1702.473667,-11621.233289,3140.991542
566.786570,-3034.844362,-10658.965565,2221.676944
566.786898,-2886.803174,-9844.739029,842.705048
566.787226,-2072.576638,-9400.615463,1072.533697
566.787553,-592.164754,-8068.244768,306.438199
566.787881,1184.329507,-5921.647536,306.438199
566.788208,2960.823768,-5329.482782,842.705048
566.788536,1480.411884,-5403.503377,536.266849
566.788864,370.102971,-5329.482782,0.000000
566.789191,-148.041188,-6143.709319,-995.924147
566.789519,0.000000,-7031.956449,-383.047749
566.789846,370.102971,-7402.059420,536.266849
566.790174,1036.288319,-7624.121203,1608.800546
566.790502,592.164754,-8808.450710,2834.553343
566.790829,-518.144159,-9474.636058,3524.039291
566.791157,-3108.864956,-10214.842000,2221.676944
566.791484,-4737.318029,-9548.656652,536.266849
566.791812,-4737.318029,-10066.800811,-306.438199
566.792140,-3552.988522,-9548.656652,-612.876398
566.792467,-2294.638420,-7328.038826,-1225.752797
566.792795,-518.144159,-6883.915261,-689.485948
566.793123,962.267725,-6809.894666,-536.266849
566.793450,148.041188,-7105.977043,-995.924147
566.793778,0.000000,-7328.038826,-1532.190996
566.794105,-222.061783,-7772.162391,-1608.800546
566.794433,1480.411884,-9178.553681,-842.705048
566.794761,2072.576638,-10066.800811,0.000000
566.795088,2812.782580,-10807.006753,1378.971896
566.795416,3330.926739,-12139.377449,2987.772442
566.795743,1332.370696,-12953.603985,3524.039291
566.796071,-296.082377,-13101.645173,2451.505594
566.796399,-1998.556043,-12657.521608,766.095498
566.796726,-1110.308913,-12953.603985,306.438199
566.797054,-1628.453072,-11843.295072,-459.657299
566.797381,222.061783,-9696.697840,-919.314598
566.797709,1184.329507,-8808.450710,153.219100
566.798037,2368.659014,-8660.409521,229.828649
566.798364,1110.308913,-9104.533087,-153.219100
566.798692,888.247130,-8364.327145,-1225.752797
566.799019,962.267725,-9104.533087,-842.705048
566.799347,296.082377,-9992.780217,-689.485948
566.799675,888.247130,-9622.677246,306.438199
566.800002,1258.350101,-9548.656652,1685.410096
566.800330,1628.453072,-10584.944971,3140.991542
566.800658,-370.102971,-11029.068536,2987.772442
566.800985,-2738.761985,-10881.027347,2451.505594
566.801313,-3997.112087,-10288.862594,919.314598
566.801640,-4071.132681,-10584.944971,229.828649
566.801968,-3182.885551,-9252.574275,-306.438199
566.802296,-1628.453072,-7698.141797,-306.438199
566.802623,-296.082377,-7179.997637,0.000000
566.802951,-444.123565,-7254.018232,0.000000
566.803278,-518.144159,-7328.038826,0.000000
566.803606,-1110.308913,-6587.832884,-1072.533697
566.803934,0.000000,-7846.182985,-612.876398
566.804261,0.000000,-8290.306550,-306.438199
566.804589,814.226536,-8438.347739,1302.362347
566.804916,1332.370696,-8956.491898,2681.334243
566.805244,1332.370696,-9326.594869,4136.915689
566.805572,148.041188,-9918.759623,3830.477490
566.805899,-1480.411884,-9622.677246,2834.553343
566.806227,-1480.411884,-9696.697840,1685.410096
566.806554,-2368.659014,-9326.594869,919.314598
566.806882,-1850.514855,-7846.182985,153.219100
566.807210,-370.102971,-6661.853478,153.219100
566.807537,222.061783,-6809.894666,383.047749
566.807865,962.267725,-6661.853478,459.657299
566.808193,148.041188,-6439.791695,-383.047749
566.808520,518.144159,-6439.791695,-842.705048
566.808848,1110.308913,-7994.224174,-536.266849
566.809175,1406.391290,-8660.409521,-229.828649
566.809503,2072.576638,-8142.265362,1225.752797
566.809831,2368.659014,-9474.636058,2298.286494
566.810158,1110.308913,-11103.089130,3600.648841
566.810486,-1258.350101,-11029.068536,3064.381992
566.810813,-2220.617826,-10807.006753,2221.676944
566.811141,-3034.844362,-11103.089130,1072.533697
566.811469,-3182.885551,-10955.047942,0.000000
566.811796,-2368.659014,-9252.574275,-612.876398
566.812124,-1258.350101,-7698.141797,-919.314598
566.812451,0.000000,-7846.182985,-536.266849
566.812779,-888.247130,-7254.018232,-1608.800546
566.813107,-222.061783,-6957.935855,-2451.505594
566.813434,74.020594,-7105.977043,-2451.505594
566.813762,1110.308913,-8142.265362,-1915.238745
566.814089,1258.350101,-8808.450710,-612.876398
566.814417,1924.535449,-9474.636058,459.657299
566.814745,1110.308913,-11029.068536,2068.457845
566.815072,-370.102971,-12065.356855,2681.334243
566.815400,-1554.432478,-11621.233289,1685.410096
566.815728,-1924.535449,-10807.006753,766.095498
566.816055,-962.267725,-11177.109724,612.876398
566.816383,-1258.350101,-10362.883188,76.609550
566.816710,0.000000,-9252.574275,-459.657299
566.817038,518.144159,-8364.327145,0.000000
566.817366,74.020594,-8512.368333,-689.485948
566.817693,-962.267725,-8364.327145,-1532.190996
566.818021,-1036.288319,-7994.224174,-1991.848295
566.818348,888.247130,-8734.430116,-1915.238745
566.818676,1406.391290,-9030.512492,-995.924147
566.819004,3034.844362,-9326.594869,229.828649
566.819331,3108.864956,-9548.656652,1608.800546
566.819659,2590.720797,-11399.171507,3064.381992
566.819986,666.185348,-11103.089130,2987.772442
566.820314,-1480.411884,-10658.965565,2451.505594
566.820642,-2442.679609,-11177.109724,1532.190996
566.820969,-2590.720797,-10955.047942,1378.971896
566.821297,-2220.617826,-9400.615463,1149.143247
566.821624,-888.247130,-7550.100608,919.314598
566.821952,222.061783,-7328.038826,1455.581446
566.822280,-1036.288319,-7698.141797,766.095498
566.822607,-1258.350101,-6365.771101,0.000000
566.822935,-888.247130,-6291.750507,-842.705048
566.823263,222.061783,-6513.812290,-766.095498
566.823590,1258.350101,-7550.100608,229.828649
566.823918,2220.617826,-8364.327145,1838.629195
566.824245,1924.535449,-8586.388927,3140.991542
566.824573,666.185348,-10807.006753,4443.353888
566.824901,-1776.494261,-10807.006753,3753.867940
566.825228,-4145.153275,-11325.150913,2604.724693
566.825556,-4737.318029,-11843.295072,1685.410096
566.825883,-4959.379811,-10658.965565,995.924147
566.826211,-3330.926739,-8364.327145,842.705048
566.826538,-1850.514855,-6587.832884,306.438199
566.826866,-1036.288319,-7105.977043,995.924147
566.827193,-1258.350101,-7698.141797,-306.438199
566.827521,-1924.535449,-6365.771101,-1685.410096
566.827848,-1258.350101,-6291.750507,-2451.505594
566.828176,148.041188,-7105.977043,-1991.848295
566.828503,1628.453072,-7254.018232,-919.314598
566.828831,3182.885551,-8290.306550,536.266849
566.829158,3923.091493,-9548.656652,2374.896044
566.829486,2146.597232,-10732.986159,2834.553343
566.829813,444.123565,-11029.068536,2374.896044
566.830141,-1110.308913,-11325.150913,1149.143247
566.830468,-1036.288319,-11991.336260,689.485948
566.830795,-1850.514855,-11325.150913,-306.438199
566.831123,0.000000,-9548.656652,153.219100
566.831450,1628.453072,-8586.388927,306.438199
566.831778,2442.679609,-8734.430116,612.876398
566.832105,740.205942,-9030.512492,-536.266849
566.832433,740.205942,-7772.162391,-1915.238745
566.832760,444.123565,-8586.388927,-2604.724693
566.833088,740.205942,-9178.553681,-2451.505594
566.833415,1110.308913,-8660.409521,-1608.800546
566.833743,2368.659014,-8882.471304,0.000000
566.834070,2960.823768,-10510.924376,2145.067394
566.834398,740.205942,-11399.171507,2374.896044
566.834725,-444.123565,-11029.068536,2068.457845
566.835052,-2812.782580,-11843.295072,1149.143247
566.835380,-2738.761985,-12213.398043,1149.143247
566.835707,-4293.194464,-11251.130318,0.000000
566.836035,-2516.700203,-9104.533087,383.047749
566.836362,-1110.308913,-8216.285956,995.924147
566.836690,-444.123565,-8142.265362,1072.533697
566.837017,-888.247130,-7328.038826,536.266849
566.837345,-1480.411884,-6439.791695,-995.924147
566.837672,-666.185348,-7254.018232,-1455.581446
566.838000,-1110.308913,-7698.141797,-1838.629195
566.838327,370.102971,-7476.080014,-536.266849
566.838655,1332.370696,-7772.162391,536.266849
566.838982,2368.659014,-9104.533087,2528.115143
566.839309,148.041188,-9622.677246,2604.724693
566.839637,-1258.350101,-9992.780217,2528.115143
566.839964,-2368.659014,-11029.068536,1915.238745
566.840292,-3330.926739,-11103.089130,1302.362347
566.840619,-2368.659014,-9696.697840,766.095498
566.840947,-1332.370696,-7920.203579,612.876398
566.841274,518.144159,-7920.203579,1685.410096
566.841602,0.000000,-7476.080014,995.924147
566.841929,74.020594,-6809.894666,0.000000
566.842257,0.000000,-6365.771101,-1302.362347
566.842584,888.247130,-7179.997637,-919.314598
566.842912,1110.308913,-7550.100608,-995.924147
566.843239,2812.782580,-7624.121203,306.438199
566.843566,4071.132681,-8660.409521,2221.676944
566.843894,3256.906145,-9770.718434,3294.210641
566.844221,962.267725,-10658.965565,3983.696590
566.844549,-740.205942,-11399.171507,2604.724693
566.844876,-1776.494261,-12065.356855,2145.067394
566.845204,-2368.659014,-11843.295072,1378.971896
566.845531,-2072.576638,-10362.883188,1149.143247
566.845859,-1184.329507,-9178.553681,1149.143247
566.846186,-962.267725,-8660.409521,1072.533697
566.846514,-1184.329507,-7402.059420,153.219100
566.846841,-1776.494261,-6291.750507,-1225.752797
566.847169,-592.164754,-6661.853478,-1915.238745
566.847496,-370.102971,-7328.038826,-2374.896044
566.847823,74.020594,-7402.059420,-1455.581446
566.848151,666.185348,-7994.224174,-306.438199
566.848478,1036.288319,-10214.842000,1225.752797
566.848806,-1110.308913,-11547.212695,1991.848295
566.849133,-2072.576638,-11769.274478,1991.848295
566.849461,-2738.761985,-11177.109724,1225.752797
566.849788,-2220.617826,-11843.295072,1225.752797
566.850116,-1628.453072,-11103.089130,1378.971896
566.850443,-222.061783,-9622.677246,1302.362347
566.850771,296.082377,-9178.553681,1685.410096
566.851098,0.000000,-9474.636058,995.924147
566.851426,-1332.370696,-9252.574275,-536.266849
566.851753,-1184.329507,-7846.182985,-1991.848295
566.852080,518.144159,-8364.327145,-1991.848295
566.852408,1332.370696,-8512.368333,-1685.410096
566.852735,3108.864956,-8216.285956,0.000000
566.853063,3478.967927,-8586.388927,536.266849
566.853390,3034.844362,-10807.006753,1915.238745
566.853718,-222.061783,-11029.068536,1225.752797
566.854045,-1998.556043,-11547.212695,842.705048
566.854373,-2220.617826,-11843.295072,536.266849
566.854700,-1776.494261,-11103.089130,76.609550
566.855028,-296.082377,-9622.677246,383.047749
566.855355,370.102971,-7920.203579,919.314598
566.855683,1406.391290,-8216.285956,1762.019645
566.856010,-370.102971,-8660.409521,76.609550
566.856337,-814.226536,-6735.874072,-153.219100
566.856665,-962.267725,-7031.956449,-1685.410096
566.856992,444.123565,-8142.265362,-1072.533697
566.857320,1110.308913,-8364.327145,-766.095498
566.857647,2442.679609,-8290.306550,459.657299
566.857975,3256.906145,-7994.224174,2451.505594
566.858302,2220.617826,-10066.800811,3140.991542
566.858630,74.020594,-10436.903782,2911.162892
566.858957,-2294.638420,-10510.924376,1532.190996
566.859285,-2960.823768,-11177.109724,842.705048
566.859612,-3034.844362,-10066.800811,689.485948
566.859940,-1850.514855,-7920.203579,919.314598
566.860267,74.020594,-7105.977043,1608.800546
566.860594,666.185348,-7179.997637,2374.896044
566.860922,-814.226536,-7105.977043,1762.019645
566.861249,-2220.617826,-6957.935855,1149.143247
566.861577,-2368.659014,-6883.915261,-383.047749
566.861904,-3034.844362,-8364.327145,-612.876398
566.862232,-2516.700203,-7846.182985,-842.705048
566.862559,-444.123565,-7328.038826,229.828649
566.862887,1702.473667,-7402.059420,1762.019645
566.863214,1036.288319,-7994.224174,2757.943793
566.863542,-370.102971,-8882.471304,2068.457845
566.863869,-1702.473667,-9030.512492,766.095498
566.864197,-1554.432478,-9770.718434,306.438199
566.864524,-1850.514855,-10066.800811,229.828649
566.864851,-814.226536,-8586.388927,306.438199
566.865179,-370.102971,-8808.450710,383.047749
566.865506,148.041188,-9400.615463,1072.533697
566.865834,-370.102971,-8808.450710,459.657299
566.866161,-296.082377,-8216.285956,0.000000
566.866489,740.205942,-9326.594869,-842.705048
566.866816,222.061783,-10288.862594,-1608.800546
566.867144,1258.350101,-9400.615463,-1149.143247
566.867471,2220.617826,-8956.491898,-536.266849
566.867799,2368.659014,-10955.047942,919.314598
566.868126,444.123565,-11695.253884,842.705048
566.868454,-296.082377,-10807.006753,306.438199
566.868781,-444.123565,-10881.027347,-153.219100
566.869108,-592.164754,-11399.171507,0.000000
566.869436,-666.185348,-10955.047942,-306.438199
566.869763,222.061783,-9622.677246,0.000000
566.870091,444.123565,-9696.697840,536.266849
566.870418,1036.288319,-9918.759623,842.705048
566.870746,0.000000,-9326.594869,536.266849
566.871073,74.020594,-9030.512492,-536.266849
566.871401,444.123565,-9992.780217,-536.266849
566.871728,592.164754,-9844.739029,76.609550
566.872056,1628.453072,-9400.615463,612.876398
566.872383,1850.514855,-9400.615463,1685.410096
566.872710,888.247130,-11103.089130,2528.115143
566.873038,-1480.411884,-11769.274478,1915.238745
566.873365,-2072.576638,-11251.130318,1608.800546
566.873693,-2812.782580,-10658.965565,536.266849
566.874020,-2368.659014,-10955.047942,919.314598
566.874348,-2294.638420,-9696.697840,995.924147
566.874675,-1554.432478,-8734.430116,1378.971896
566.875003,-444.123565,-8438.347739,1838.629195
566.875330,-1036.288319,-7476.080014,2221.676944
566.875658,-1554.432478,-7105.977043,1072.533697
566.875985,-1776.494261,-7254.018232,-229.828649
566.876313,-1554.432478,-8068.244768,-306.438199
566.876640,-1258.350101,-7328.038826,-306.438199
566.876967,-444.123565,-6883.915261,612.876398
566.877295,370.102971,-8216.285956,1838.629195
566.877622,-666.185348,-9400.615463,2374.896044
566.877950,-1406.391290,-9252.574275,1762.019645
566.878277,-1998.556043,-8438.347739,919.314598
566.878605,-1924.535449,-9178.553681,766.095498
566.878932,-1554.432478,-9104.533087,76.609550
566.879260,-148.041188,-7624.121203,153.219100
566.879587,1776.494261,-6735.874072,1225.752797
566.879915,2812.782580,-7105.977043,1991.848295
566.880242,1480.411884,-7031.956449,1685.410096
566.880570,666.185348,-7105.977043,612.876398
566.880897,0.000000,-7772.162391,0.000000
566.881224,0.000000,-8586.388927,-536.266849
566.881552,518.144159,-8068.244768,-306.438199
566.881879,1184.329507,-7402.059420,1225.752797
566.882207,2220.617826,-8660.409521,2068.457845
566.882534,1110.308913,-8882.471304,2068.457845
566.882862,-222.061783,-8438.347739,1378.971896
566.883189,-592.164754,-8586.388927,383.047749
566.883517,-1406.391290,-9474.636058,0.000000
566.883844,-1850.514855,-8512.368333,-919.314598
566.884172,-1184.329507,-7402.059420,-919.314598
566.884499,-518.144159,-7476.080014,-612.876398
566.884827,-296.082377,-8364.327145,0.000000
566.885154,-444.123565,-7550.100608,-229.828649
566.885481,-222.061783,-7105.977043,-919.314598
566.885809,444.123565,-8438.347739,-766.095498
566.886136,0.000000,-8660.409521,-995.924147
566.886464,592.164754,-9104.533087,0.000000
566.886791,814.226536,-9770.718434,612.876398
566.887119,666.185348,-11547.212695,2298.286494
566.887446,-1850.514855,-11769.274478,1225.752797
566.887774,-2072.576638,-11769.274478,459.657299
566.888101,-2368.659014,-11843.295072,-153.219100
566.888429,-1332.370696,-11843.295072,0.000000
566.888756,-1480.411884,-10584.944971,-383.047749
566.889084,370.102971,-9178.553681,-306.438199
566.889411,814.226536,-9622.677246,0.000000
566.889738,222.061783,-9474.636058,0.000000
566.890066,-296.082377,-9030.512492,-612.876398
566.890393,-518.144159,-9178.553681,-689.485948
566.890721,0.000000,-10140.821405,-919.314598
566.891048,-296.082377,-10436.903782,-229.828649
566.891376,888.247130,-9622.677246,612.876398
566.891703,1332.370696,-10140.821405,1915.238745
566.892031,888.247130,-12065.356855,2911.162892
566.892358,-1258.350101,-11399.171507,2068.457845
566.892686,-1480.411884,-10732.986159,1302.362347
566.893013,-1110.308913,-11251.130318,612.876398
566.893341,-1036.288319,-10362.883188,0.000000
566.893668,74.020594,-9326.594869,612.876398
566.893995,1776.494261,-7920.203579,1532.190996
566.894323,2368.659014,-8660.409521,1838.629195
566.894650,1406.391290,-8512.368333,1608.800546
566.894978,888.247130,-7994.224174,995.924147
566.895305,592.164754,-9178.553681,842.705048
566.895633,592.164754,-10140.821405,689.485948
566.895960,888.247130,-9622.677246,2221.676944
566.896288,1110.308913,-9400.615463,2757.943793
566.896615,740.205942,-10214.842000,3830.477490
566.896943,-1332.370696,-10732.986159,3600.648841
566.897270,-3849.070898,-9844.739029,2145.067394
566.897598,-4811.338623,-9474.636058,459.657299
566.897925,-4219.173869,-8882.471304,0.000000
566.898252,-4145.153275,-7772.162391,-536.266849
566.898580,-2146.597232,-6217.729913,0.000000
566.898907,-962.267725,-6069.688724,306.438199
566.899235,-222.061783,-6513.812290,1149.143247
566.899562,-1702.473667,-5921.647536,153.219100
566.899890,-1850.514855,-5847.626942,-536.266849
566.900217,-1998.556043,-7550.100608,-1302.362347
566.900545,-1776.494261,-7846.182985,-842.705048
566.900872,-148.041188,-6883.915261,229.828649
566.901200,1406.391290,-7328.038826,1762.019645
566.901527,1554.432478,-9326.594869,2757.943793
566.901855,0.000000,-10288.862594,2604.724693
566.902182,-666.185348,-9622.677246,1532.190996
566.902509,-1110.308913,-9770.718434,306.438199
566.902837,-1258.350101,-10288.862594,-689.485948
566.903164,-740.205942,-8364.327145,-2068.457845
566.903492,1702.473667,-7105.977043,-1455.581446
566.903819,3404.947333,-7031.956449,-766.095498
566.904147,3923.091493,-7179.997637,153.219100
566.904474,3034.844362,-6143.709319,-1072.533697
566.904802,2368.659014,-7550.100608,-612.876398
566.905129,1258.350101,-9770.718434,-842.705048
566.905457,0.000000,-10214.842000,-689.485948
566.905784,1184.329507,-10066.800811,536.266849
566.906112,2220.617826,-10807.006753,2145.067394
566.906439,1702.473667,-11029.068536,2911.162892
566.906766,-370.102971,-10881.027347,2451.505594
566.907094,-1406.391290,-10362.883188,1225.752797
566.907421,-2442.679609,-10214.842000,0.000000
566.907749,-2368.659014,-10288.862594,-459.657299
566.908076,-2146.597232,-8734.430116,-1608.800546
566.908404,-1110.308913,-8290.306550,-1302.362347
566.908731,148.041188,-9030.512492,-459.657299
566.909059,0.000000,-8142.265362,0.000000
566.909386,-296.082377,-7698.141797,0.000000
566.909714,-592.164754,-8956.491898,-306.438199
566.910041,-1184.329507,-11325.150913,-153.219100
566.910369,-1998.556043,-10658.965565,229.828649
566.910696,-370.102971,-10658.965565,1608.800546
566.911023,74.020594,-11103.089130,2604.724693
566.911351,0.000000,-11695.253884,3677.258390
566.911678,-1628.453072,-11251.130318,3217.601092
566.912006,-2220.617826,-10436.903782,1838.629195
566.912333,-2146.597232,-10955.047942,919.314598
566.912661,-2294.638420,-9474.636058,0.000000
566.912988,-740.205942,-8068.244768,-306.438199
566.913316,370.102971,-7476.080014,-153.219100
566.913643,1702.473667,-7920.203579,612.876398
566.913971,0.000000,-7476.080014,0.000000
566.914298,1184.329507,-7179.997637,306.438199
566.914626,1480.411884,-8068.244768,-153.219100
566.914953,2368.659014,-8734.430116,1455.581446
566.915280,1702.473667,-9400.615463,1685.410096
566.915608,1702.473667,-9992.780217,2757.943793
566.915935,370.102971,-11029.068536,3677.258390
566.916263,-1554.432478,-11399.171507,3677.258390
566.916590,-3034.844362,-10658.965565,2451.505594
566.916918,-3478.967927,-10288.862594,1225.752797
566.917245,-2294.638420,-9548.656652,766.095498
566.917573,-1998.556043,-7550.100608,0.000000
566.917900,0.000000,-6217.729913,0.000000
566.918228,74.020594,-5847.626942,-459.657299
566.918555,222.061783,-6439.791695,0.000000
566.918883,-962.267725,-5921.647536,-1072.533697
566.919210,-1110.308913,-6217.729913,-1762.019645
566.919537,-740.205942,-7920.203579,-1225.752797
566.919865,-370.102971,-8364.327145,-459.657299
566.920192,1036.288319,-8882.471304,919.314598
566.920520,1850.514855,-9178.553681,2451.505594
566.920847,1110.308913,-10510.924376,3370.820191
566.921175,-1480.411884,-11103.089130,2604.724693
566.921502,-2442.679609,-10436.903782,2221.676944
566.921830,-2072.576638,-9696.697840,-383.047749
566.922157,-1554.432478,-9918.759623,-459.657299
566.922485,-592.164754,-8290.306550,-919.314598
566.922812,1258.350101,-7254.018232,-919.314598
566.923140,1998.556043,-7772.162391,0.000000
566.923467,444.123565,-7476.080014,-919.314598
566.923794,74.020594,-7476.080014,-1685.410096
566.924122,0.000000,-7476.080014,-2451.505594
566.924449,1702.473667,-8882.471304,-1532.190996
566.924777,1998.556043,-9326.594869,-1225.752797
566.925104,3108.864956,-9252.574275,919.314598
566.925431,2516.700203,-10510.924376,2068.457845
566.925759,1406.391290,-11547.212695,2911.162892
566.926086,-1036.288319,-11843.295072,2451.505594
566.926413,-2590.720797,-11621.233289,766.095498
566.926741,-3182.885551,-11695.253884,383.047749
566.927068,-1850.514855,-10807.006753,-229.828649
566.927396,-1184.329507,-8512.368333,-383.047749
566.927723,1110.308913,-7698.141797,76.609550
566.928050,1554.432478,-8068.244768,536.266849
566.928378,518.144159,-7920.203579,0.000000
566.928705,-518.144159,-7698.141797,0.000000
566.929032,-1110.308913,-8068.244768,-1302.362347
566.929360,-592.164754,-9548.656652,-689.485948
566.929687,0.000000,-9622.677246,306.438199
566.930014,518.144159,-9622.677246,2068.457845
566.930342,1924.535449,-10807.006753,3524.039291
566.930669,0.000000,-11399.171507,4290.134789
566.930996,-1702.473667,-11029.068536,3677.258390
566.931324,-2590.720797,-10807.006753,2374.896044
566.931651,-2886.803174,-10881.027347,1149.143247
566.931979,-3256.906145,-9770.718434,0.000000
566.932306,-2220.617826,-7994.224174,0.000000
566.932633,-518.144159,-6587.832884,229.828649
566.932961,1110.308913,-6365.771101,1149.143247
566.933288,666.185348,-6513.812290,383.047749
566.933615,666.185348,-7105.977043,0.000000
566.933943,0.000000,-8216.285956,-383.047749
566.934270,0.000000,-8734.430116,-229.828649
566.934597,962.267725,-8956.491898,919.314598
566.934925,1628.453072,-9474.636058,2374.896044
566.935252,1776.494261,-10436.903782,4596.572988
566.935579,0.000000,-10658.965565,3907.087040
566.935907,-962.267725,-9696.697840,3064.381992
566.936234,-2072.576638,-9474.636058,1762.019645
566.936561,-2442.679609,-10214.842000,842.705048
566.936889,-3330.926739,-9178.553681,-383.047749
566.937216,-1702.473667,-7550.100608,-766.095498
566.937544,-740.205942,-7254.018232,-689.485948
566.937871,-592.164754,-7031.956449,-919.314598
566.938198,-148.041188,-6513.812290,-1455.581446
566.938526,-592.164754,-6661.853478,-1915.238745
566.938853,148.041188,-8068.244768,-1991.848295
566.939180,-814.226536,-8216.285956,-1685.410096
566.939508,444.123565,-8216.285956,-459.657299
566.939835,2146.597232,-8882.471304,1072.533697
566.940162,1554.432478,-10436.903782,2374.896044
566.940490,-296.082377,-10807.006753,1685.410096
566.940817,-962.267725,-9844.739029,1991.848295
566.941144,-1702.473667,-10288.862594,459.657299
566.941472,-2072.576638,-10288.862594,0.000000
566.941799,-1480.411884,-9252.574275,-842.705048
566.942127,296.082377,-8290.306550,-1149.143247
566.942454,592.164754,-8364.327145,-842.705048
566.942781,1036.288319,-7772.162391,-1149.143247
566.943109,1406.391290,-7402.059420,-1455.581446
566.943436,2072.576638,-7846.182985,-1991.848295
566.943763,2516.700203,-9770.718434,-1302.362347
566.944091,2072.576638,-9622.677246,-919.314598
566.944418,2812.782580,-9622.677246,536.266849
566.944745,2664.741391,-11325.150913,2145.067394
566.945073,1480.411884,-12065.356855,3294.210641
566.945400,-888.247130,-12065.356855,2834.553343
566.945727,-2294.638420,-11843.295072,2068.457845
566.946055,-2220.617826,-12583.501014,1532.190996
566.946382,-3182.885551,-11251.130318,536.266849
566.946710,-1998.556043,-9770.718434,689.485948
566.947037,-962.267725,-8956.491898,689.485948
566.947364,-222.061783,-8882.471304,766.095498
566.947692,-1406.391290,-8438.347739,-612.876398
566.948019,-1554.432478,-7846.182985,-1149.143247
566.948346,-1036.288319,-7994.224174,-1838.629195
566.948674,370.102971,-8586.388927,-1225.752797
566.949001,814.226536,-8512.368333,0.000000
566.949328,2072.576638,-8660.409521,1838.629195
566.949656,1776.494261,-10807.006753,3217.601092
566.949983,-444.123565,-11695.253884,3447.429741
566.950310,-2368.659014,-11177.109724,2911.162892
566.950638,-3182.885551,-11399.171507,2145.067394
566.950965,-2738.761985,-11399.171507,1915.238745
566.951292,-2516.700203,-10066.800811,1225.752797
566.951620,-518.144159,-8364.327145,1608.800546
566.951947,74.020594,-7328.038826,1302.362347
566.952275,740.205942,-7105.977043,1302.362347
566.952602,74.020594,-5699.585753,-459.657299
566.952929,296.082377,-5847.626942,-1532.190996
566.953257,666.185348,-7328.038826,-1378.971896
566.953584,888.247130,-7328.038826,-1072.533697
566.953911,1850.514855,-7402.059420,76.609550
566.954239,2664.741391,-7698.141797,2068.457845
566.954566,2368.659014,-9030.512492,2911.162892
566.954893,148.041188,-10510.924376,3370.820191
566.955221,-2072.576638,-9844.739029,2374.896044
566.955548,-3478.967927,-10510.924376,1685.410096
566.955875,-3552.988522,-10214.842000,842.705048
566.956203,-2738.761985,-8142.265362,306.438199
566.956530,-222.061783,-6809.894666,766.095498
566.956858,814.226536,-6735.874072,689.485948
566.957185,370.102971,-6291.750507,306.438199
566.957512,-296.082377,-5329.482782,-689.485948
566.957840,-370.102971,-5033.400406,-1225.752797
566.958167,-814.226536,-7105.977043,-1915.238745
566.958494,-1110.308913,-8142.265362,-1991.848295
566.958822,222.061783,-8660.409521,-689.485948
566.959149,888.247130,-9400.615463,1225.752797
566.959476,888.247130,-9770.718434,2451.505594
566.959804,-888.247130,-10214.842000,2374.896044
566.960131,-2146.597232,-10658.965565,1455.581446
566.960458,-2294.638420,-10732.986159,459.657299
566.960786,-2516.700203,-9992.780217,0.000000
566.961113,-1628.453072,-8068.244768,-306.438199
566.961441,74.020594,-7550.100608,76.609550
566.961768,814.226536,-7920.203579,229.828649
566.962095,370.102971,-7772.162391,-306.438199
566.962423,0.000000,-7328.038826,-1532.190996
566.962750,-296.082377,-8290.306550,-1915.238745
566.963077,0.000000,-9474.636058,-2068.457845
566.963405,370.102971,-10066.800811,-1225.752797
566.963732,1924.535449,-9770.718434,-153.219100
566.964059,2590.720797,-11177.109724,1532.190996
566.964387,1258.350101,-12139.377449,2298.286494
566.964714,666.185348,-12065.356855,2681.334243
566.965041,-814.226536,-11177.109724,1838.629195
566.965369,-518.144159,-12361.439231,2068.457845
566.965696,-1332.370696,-11473.192101,1072.533697
566.966023,-370.102971,-10214.842000,1378.971896
566.966351,0.000000,-9548.656652,1455.581446
566.966678,666.185348,-9400.615463,1532.190996
566.967006,-814.226536,-8808.450710,536.266849
566.967333,-962.267725,-8290.306550,-383.047749
566.967660,-666.185348,-8734.430116,-1225.752797
566.967988,-370.102971,-8808.450710,-1225.752797
566.968315,444.123565,-8290.306550,-536.266849
566.968642,1258.350101,-8734.430116,306.438199
566.968970,1702.473667,-9992.780217,1991.848295
566.969297,-222.061783,-10362.883188,2298.286494
566.969624,-1184.329507,-10288.862594,2145.067394
566.969952,-2146.597232,-10140.821405,1302.362347
566.970279,-1924.535449,-11177.109724,1685.410096
566.970606,-2146.597232,-10066.800811,1302.362347
566.970934,-888.247130,-8808.450710,1838.629195
566.971261,-518.144159,-8882.471304,1838.629195
566.971589,-1184.329507,-8586.388927,919.314598
566.971916,-2146.597232,-8068.244768,0.000000
566.972243,-2368.659014,-7624.121203,-1302.362347
566.972571,-1036.288319,-8660.409521,-1302.362347
566.972898,0.000000,-8068.244768,-1455.581446
566.973225,1480.411884,-7994.224174,-612.876398
566.973553,3108.864956,-8438.347739,1685.410096
566.973880,2442.679609,-9770.718434,2145.067394
566.974207,74.020594,-9770.718434,1608.800546
566.974535,-740.205942,-9622.677246,842.705048
566.974862,-1554.432478,-10066.800811,383.047749
566.975189,-1332.370696,-9770.718434,153.219100
566.975517,-1036.288319,-9104.533087,459.657299
566.975844,0.000000,-8068.244768,842.705048
566.976171,592.164754,-8438.347739,1532.190996
566.976499,0.000000,-7550.100608,995.924147
566.976826,-444.123565,-6217.729913,-229.828649
566.977154,148.041188,-6809.894666,-1225.752797
566.977481,74.020594,-7624.121203,-1608.800546
566.977808,74.020594,-7179.997637,-1455.581446
566.978136,1998.556043,-7105.977043,-459.657299
566.978463,3627.009116,-8216.285956,766.095498
566.978790,2590.720797,-9548.656652,1378.971896
566.979118,962.267725,-9696.697840,1685.410096
566.979445,-814.226536,-9622.677246,766.095498
566.979772,-1480.411884,-11621.233289,612.876398
566.980100,-1702.473667,-10732.986159,229.828649
566.980427,-592.164754,-9474.636058,612.876398
566.980754,148.041188,-9252.574275,1608.800546
566.981082,222.061783,-9548.656652,1991.848295
566.981409,-740.205942,-8808.450710,995.924147
566.981737,-1924.535449,-7402.059420,229.828649
566.982064,-1110.308913,-7402.059420,-1072.533697
566.982391,-1554.432478,-8512.368333,-1532.190996
566.982719,-814.226536,-7402.059420,-1225.752797
566.983046,148.041188,-7550.100608,-306.438199
566.983373,814.226536,-8512.368333,842.705048
566.983701,74.020594,-9178.553681,1838.629195
566.984028,-740.205942,-9770.718434,1608.800546
566.984355,-1628.453072,-10362.883188,1225.752797
566.984683,-2072.576638,-11917.315666,766.095498
566.985010,-2368.659014,-10584.944971,459.657299
566.985337,-1702.473667,-9474.636058,919.314598
566.985665,-370.102971,-9104.533087,995.924147
566.985992,-592.164754,-9548.656652,1072.533697
566.986320,-666.185348,-8882.471304,612.876398
566.986647,0.000000,-7698.141797,76.609550
566.986974,962.267725,-8290.306550,306.438199
566.987302,1258.350101,-8512.368333,-383.047749
566.987629,1480.411884,-8660.409521,383.047749
566.987956,1776.494261,-9104.533087,1149.143247
566.988284,962.267725,-10807.006753,1532.190996
566.988611,-518.144159,-11103.089130,1685.410096
566.988938,-814.226536,-10510.924376,1072.533697
566.989266,-1110.308913,-10807.006753,1225.752797
566.989593,-296.082377,-11029.068536,1149.143247
566.989920,0.000000,-10066.800811,1149.143247
566.990248,148.041188,-8512.368333,1378.971896
566.990575,1110.308913,-8438.347739,2068.457845
566.990902,-740.205942,-8290.306550,766.095498
566.991230,-740.205942,-7179.997637,459.657299
566.991557,-1332.370696,-7254.018232,-536.266849
566.991885,-740.205942,-8216.285956,-383.047749
566.992212,-888.247130,-8216.285956,-383.047749
566.992539,518.144159,-7550.100608,919.314598
566.992867,740.205942,-8586.388927,1455.581446
566.993194,0.000000,-10362.883188,1608.800546
566.993521,-1480.411884,-10436.903782,1302.362347
566.993849,-2516.700203,-9474.636058,383.047749
566.994176,-1628.453072,-9992.780217,306.438199
566.994503,-1776.494261,-10066.800811,0.000000
566.994831,-592.164754,-8734.430116,306.438199
566.995158,0.000000,-8586.388927,612.876398
566.995485,296.082377,-9030.512492,1455.581446
566.995813,-518.144159,-8512.368333,383.047749
566.996140,-888.247130,-8068.244768,153.219100
566.996468,-666.185348,-8734.430116,-689.485948
566.996795,222.061783,-9326.594869,-383.047749
566.997122,888.247130,-8956.491898,0.000000
566.997450,1924.535449,-8142.265362,1608.800546
566.997777,1480.411884,-9548.656652,2068.457845
566.998104,0.000000,-9992.780217,1532.190996
566.998432,-666.185348,-9844.739029,842.705048
566.998759,-1406.391290,-9474.636058,0.000000
566.999086,-740.205942,-9622.677246,-153.219100
566.999414,-666.185348,-9770.718434,-153.219100
566.999741,888.247130,-8290.306550,612.876398
567.000068,1110.308913,-7994.224174,1149.143247
567.000396,1036.288319,-8882.471304,1608.800546
567.000723,148.041188,-8660.409521,1072.533697
567.001051,-740.205942,-8512.368333,306.438199
567.001378,-1702.473667,-9770.718434,-612.876398
567.001705,-1998.556043,-10214.842000,-689.485948
567.002033,-518.144159,-8660.409521,76.609550
567.002360,888.247130,-8290.306550,919.314598
567.002687,1998.556043,-8956.491898,1762.019645
567.003015,814.226536,-9474.636058,1685.410096
567.003342,0.000000,-9104.533087,1378.971896
567.003669,-1480.411884,-9178.553681,153.219100
567.003997,-1628.453072,-10288.862594,-306.438199
567.004324,-1554.432478,-9104.533087,76.609550
567.004651,-370.102971,-8216.285956,383.047749
567.004979,814.226536,-8808.450710,1225.752797
567.005306,444.123565,-8512.368333,1762.019645
567.005633,0.000000,-8882.471304,1532.190996
567.005961,-592.164754,-9030.512492,842.705048
567.006288,-814.226536,-9696.697840,459.657299
567.006616,-1036.288319,-9770.718434,0.000000
567.006943,-222.061783,-8808.450710,306.438199
567.007270,888.247130,-9474.636058,1455.581446
567.007598,888.247130,-9178.553681,1838.629195
567.007925,518.144159,-9326.594869,2298.286494
567.008252,-148.041188,-8882.471304,1225.752797
567.008580,-1036.288319,-9548.656652,76.609550
567.008907,-1924.535449,-10140.821405,-459.657299
567.009234,-1702.473667,-9104.533087,-229.828649
567.009562,0.000000,-8586.388927,0.000000
567.009889,296.082377,-9400.615463,1072.533697
567.010216,-148.041188,-9030.512492,919.314598
567.010544,0.000000,-8290.306550,995.924147
567.010871,-666.185348,-8586.388927,0.000000
567.011199,-814.226536,-9326.594869,-306.438199
567.011526,-1184.329507,-9030.512492,-306.438199
567.011853,148.041188,-8512.368333,76.609550
567.012181,740.205942,-9178.553681,689.485948
567.012508,148.041188,-9770.718434,1149.143247
567.012835,-592.164754,-8660.409521,383.047749
567.013163,-1036.288319,-8882.471304,383.047749
567.013490,-1184.329507,-9622.677246,-536.266849
567.013817,-1184.329507,-9474.636058,-1149.143247
567.014145,0.000000,-8956.491898,-153.219100
567.014472,370.102971,-8438.347739,229.828649
567.014799,592.164754,-9326.594869,1149.143247
567.015127,0.000000,-9548.656652,383.047749
567.015454,0.000000,-8586.388927,459.657299
567.015781,148.041188,-8882.471304,0.000000
567.016109,1184.329507,-8808.450710,0.000000
567.016436,1850.514855,-7920.203579,842.705048
567.016764,2368.659014,-8216.285956,1608.800546
567.017091,2220.617826,-9178.553681,2374.896044
567.017418,0.000000,-9548.656652,2221.676944
567.017746,-1036.288319,-9326.594869,1608.800546
567.018073,-2516.700203,-9696.697840,76.609550
567.018400,-2220.617826,-10584.944971,153.219100
567.018728,-2294.638420,-9622.677246,-536.266849
567.019055,-814.226536,-8438.347739,306.438199
567.019382,74.020594,-8290.306550,766.095498
567.019710,74.020594,-8734.430116,536.266849
567.020037,-740.205942,-8364.327145,306.438199
567.020364,-1776.494261,-7846.182985,-459.657299
567.020692,-1332.370696,-8142.265362,-612.876398
567.021019,-1110.308913,-8438.347739,0.000000
567.021347,444.123565,-7920.203579,1072.533697
567.021674,1628.453072,-8142.265362,1838.629195
567.022001,888.247130,-9474.636058,2911.162892
567.022329,-888.247130,-9548.656652,2451.505594
567.022656,-2146.597232,-9696.697840,1608.800546
567.022983,-3182.885551,-10066.800811,306.438199
567.023311,-3552.988522,-9770.718434,-612.876398
567.023638,-2146.597232,-9030.512492,-229.828649
567.023965,74.020594,-7698.141797,0.000000
567.024293,1776.494261,-8364.327145,1072.533697
567.024620,1332.370696,-8142.265362,919.314598
567.024947,962.267725,-7476.080014,766.095498
567.025275,888.247130,-8364.327145,-229.828649
567.025602,518.144159,-9252.574275,-229.828649
567.025930,148.041188,-9252.574275,0.000000
567.026257,1554.432478,-9252.574275,1685.410096
567.026584,1702.473667,-9844.739029,2298.286494
567.026912,1258.350101,-10807.006753,3983.696590
567.027239,-740.205942,-10214.842000,2834.553343
567.027566,-1850.514855,-10214.842000,1838.629195
567.027894,-2664.741391,-10658.965565,153.219100
567.028221,-3256.906145,-10436.903782,-536.266849
567.028548,-2516.700203,-7994.224174,-229.828649
567.028876,-814.226536,-7402.059420,-766.095498
567.029203,888.247130,-7994.224174,153.219100
567.029531,-148.041188,-7698.141797,-153.219100
567.029858,0.000000,-7328.038826,-383.047749
567.030185,0.000000,-7402.059420,-1072.533697
567.030513,-74.020594,-9030.512492,-306.438199
567.030840,74.020594,-8586.388927,0.000000
567.031167,740.205942,-9474.636058,919.314598
567.031495,1110.308913,-10584.944971,2068.457845
567.031822,0.000000,-10436.903782,2528.115143
567.032150,-1110.308913,-10584.944971,1685.410096
567.032477,-2368.659014,-10732.986159,842.705048
567.032804,-2146.597232,-11769.274478,76.609550
567.033132,-2294.638420,-10362.883188,-919.314598
567.033459,-666.185348,-8882.471304,-229.828649
567.033786,1554.432478,-8216.285956,-229.828649
567.034114,2368.659014,-8438.347739,383.047749
567.034441,2220.617826,-7624.121203,0.000000
567.034769,2516.700203,-7476.080014,0.000000
567.035096,2738.761985,-8882.471304,459.657299
567.035423,2368.659014,-8586.388927,766.095498
567.035751,2664.741391,-9030.512492,2145.067394
567.036078,3034.844362,-10140.821405,3294.210641
567.036405,2442.679609,-11473.192101,5056.230287
567.036733,444.123565,-10955.047942,5209.449386
567.037060,-1332.370696,-10510.924376,5286.058936
567.037388,-2960.823768,-10881.027347,3294.210641
567.037715,-3627.009116,-10807.006753,2374.896044
567.038042,-4071.132681,-9252.574275,1685.410096
567.038370,-1924.535449,-7550.100608,1685.410096
567.038697,-148.041188,-7031.956449,2068.457845
567.039024,-222.061783,-6809.894666,1838.629195
567.039352,-1702.473667,-6661.853478,1608.800546
567.039679,-1258.350101,-6365.771101,1455.581446
567.040006,-1998.556043,-7402.059420,995.924147
567.040334,-2072.576638,-8142.265362,1378.971896
567.040661,-1406.391290,-9030.512492,2451.505594
567.040989,-296.082377,-9326.594869,4519.963438
567.041316,0.000000,-9918.759623,5669.106685
567.041643,-2220.617826,-10140.821405,5515.887586
567.041971,-2812.782580,-10288.862594,4826.401637
567.042298,-2294.638420,-9696.697840,3217.601092
567.042625,-2220.617826,-9400.615463,2987.772442
567.042953,-1480.411884,-8142.265362,2451.505594
567.043280,1628.453072,-7105.977043,3140.991542
567.043608,4219.173869,-6587.832884,4213.525239
567.043935,4589.276840,-6513.812290,4213.525239
567.044262,3552.988522,-7179.997637,3983.696590
567.044590,2220.617826,-8364.327145,3370.820191
567.044917,1924.535449,-9030.512492,2987.772442
567.045244,148.041188,-10288.862594,2681.334243
567.045572,-814.226536,-10955.047942,2834.553343
567.045899,0.000000,-10732.986159,4213.525239
567.046227,1036.288319,-10066.800811,5669.106685
567.046554,888.247130,-9696.697840,6128.763984
567.046881,0.000000,-9918.759623,5515.887586
567.047209,-2072.576638,-10140.821405,4290.134789
567.047536,-3478.967927,-9548.656652,2987.772442
567.047863,-4515.256246,-9104.533087,1685.410096
567.048191,-4515.256246,-8586.388927,1225.752797
567.048518,-3997.112087,-8216.285956,766.095498
567.048845,-2516.700203,-7476.080014,1455.581446
567.049173,-370.102971,-6513.812290,2068.457845
567.049500,-296.082377,-6661.853478,1608.800546
567.049828,-296.082377,-8142.265362,1149.143247
567.050155,-2664.741391,-9770.718434,229.828649
567.050482,-3256.906145,-11251.130318,459.657299
567.050810,-2516.700203,-11177.109724,1072.533697
567.051137,-666.185348,-10584.944971,2221.676944
567.051464,1332.370696,-10658.965565,3524.039291
567.051792,3478.967927,-11029.068536,4673.182538
567.052119,5181.441594,-9844.739029,5209.449386
567.052447,5921.647536,-8956.491898,5515.887586
567.052774,5477.523971,-9474.636058,5822.325785
567.053101,3923.091493,-11251.130318,4749.792088
567.053429,2368.659014,-11547.212695,4366.744339
567.053756,1850.514855,-10510.924376,3600.648841
567.054083,2738.761985,-10214.842000,5362.668486
567.054411,4441.235652,-9326.594869,5056.230287
567.054738,2738.761985,-10584.944971,4903.011187
567.055066,370.102971,-10807.006753,4290.134789
567.055393,-1258.350101,-10436.903782,3677.258390
567.055720,-1998.556043,-9474.636058,3600.648841
567.056048,-3478.967927,-8956.491898,3830.477490
567.056375,-3552.988522,-10066.800811,2834.553343
567.056702,-5921.647536,-10362.883188,2374.896044
567.057030,-6883.915261,-9326.594869,1532.190996
567.057357,-6143.709319,-7254.018232,1762.019645
567.057685,-4737.318029,-6069.688724,2145.067394
567.058012,-2960.823768,-6217.729913,1608.800546
567.058339,-3404.947333,-6513.812290,1608.800546
567.058667,-3627.009116,-6735.874072,1455.581446
567.058994,-1850.514855,-6365.771101,1915.238745
567.059321,518.144159,-5921.647536,2298.286494
567.059649,3849.070898,-6883.915261,4366.744339
567.059976,4959.379811,-9030.512492,5362.668486
567.060303,3701.029710,-10807.006753,5822.325785
567.060631,1998.556043,-11621.233289,5975.544884
567.060958,1258.350101,-11473.192101,5745.716235
567.061286,2516.700203,-10658.965565,5745.716235
567.061613,3849.070898,-10362.883188,5362.668486
567.061940,4367.215058,-10955.047942,4903.011187
567.062268,3034.844362,-10732.986159,4903.011187
567.062595,666.185348,-9548.656652,3294.210641
567.062922,-370.102971,-9030.512492,3907.087040
567.063250,1998.556043,-7105.977043,3370.820191
567.063577,1406.391290,-8142.265362,3064.381992
567.063905,74.020594,-7328.038826,3140.991542
567.064232,-1480.411884,-8586.388927,2757.943793
567.064559,-4811.338623,-7920.203579,2374.896044
567.064887,-6439.791695,-8660.409521,1455.581446
567.065214,-5847.626942,-8512.368333,1225.752797
567.065541,-4885.359217,-8364.327145,1302.362347
567.065869,-2368.659014,-7550.100608,1838.629195
567.066196,-962.267725,-6809.894666,2757.943793
567.066524,-1480.411884,-6809.894666,2451.505594
567.066851,-1406.391290,-7550.100608,1991.848295
567.067178,-2368.659014,-8290.306550,1072.533697
567.067506,-1332.370696,-8734.430116,459.657299
567.067833,222.061783,-8586.388927,1608.800546
567.068160,3108.864956,-8364.327145,2911.162892
567.068488,4959.379811,-8808.450710,4903.011187
567.068815,5921.647536,-10362.883188,5515.887586
567.069143,4811.338623,-11769.274478,5439.278036
567.069470,2886.803174,-12731.542202,4519.963438
567.069797,74.020594,-13027.624579,3064.381992
567.070125,-1184.329507,-12583.501014,3830.477490
567.070452,0.000000,-12065.356855,4060.306139
567.070779,2590.720797,-10658.965565,4903.011187
567.071107,4737.318029,-9474.636058,5822.325785
567.071434,2960.823768,-9178.553681,4979.620737
567.071761,740.205942,-9474.636058,4596.572988
567.072089,-3182.885551,-8586.388927,2834.553343
567.072416,-5847.626942,-9326.594869,1532.190996
567.072744,-5255.462188,-8956.491898,1072.533697
567.073071,-3330.926739,-7698.141797,1991.848295
567.073398,-962.267725,-7031.956449,3370.820191
567.073726,962.267725,-6365.771101,4519.963438
567.074053,518.144159,-7105.977043,5592.497135
567.074380,-962.267725,-8290.306550,4903.011187
567.074708,-2886.803174,-9326.594869,3753.867940
567.075035,-4589.276840,-9770.718434,2604.724693
567.075363,-5329.482782,-10807.006753,1608.800546
567.075690,-4515.256246,-10584.944971,2145.067394
567.076017,-1998.556043,-9548.656652,2528.115143
567.076345,740.205942,-8586.388927,3524.039291
567.076672,2886.803174,-8142.265362,4136.915689
567.076999,2590.720797,-8068.244768,3830.477490
567.077327,2072.576638,-8734.430116,3370.820191
567.077654,666.185348,-9474.636058,2911.162892
567.077982,222.061783,-10140.821405,2451.505594
567.078309,592.164754,-10288.862594,2834.553343
567.078636,1258.350101,-10288.862594,3830.477490
567.078964,1258.350101,-9844.739029,4290.134789
567.079291,888.247130,-9474.636058,4519.963438
567.079618,814.226536,-9474.636058,4213.525239
567.079946,444.123565,-8882.471304,3370.820191
567.080273,-518.144159,-8290.306550,2987.772442
567.080601,740.205942,-7846.182985,2604.724693
567.080928,888.247130,-7254.018232,2451.505594
567.081255,1110.308913,-7105.977043,3370.820191
567.081583,1924.535449,-7031.956449,3140.991542
567.081910,1924.535449,-7105.977043,4060.306139
567.082237,814.226536,-8512.368333,3907.087040
567.082565,296.082377,-9030.512492,3600.648841
567.082892,-1332.370696,-9474.636058,3447.429741
567.083219,-2072.576638,-9770.718434,2911.162892
567.083547,-1554.432478,-9770.718434,2834.553343
567.083874,-2072.576638,-10140.821405,3064.381992
567.084202,-1258.350101,-9474.636058,2987.772442
567.084529,-1036.288319,-9252.574275,3217.601092
567.084856,-1036.288319,-8734.430116,2911.162892
567.085184,-1332.370696,-8290.306550,1991.848295
567.085511,-1702.473667,-7402.059420,2451.505594
567.085838,-1332.370696,-7846.182985,1915.238745
567.086166,-1110.308913,-7772.162391,2221.676944
567.086493,-740.205942,-7846.182985,2834.553343
567.086821,0.000000,-7994.224174,3294.210641
567.087148,814.226536,-9104.533087,4443.353888
567.087475,518.144159,-9622.677246,3677.258390
567.087803,222.061783,-10436.903782,3677.258390
567.088130,-296.082377,-10584.944971,3830.477490
567.088457,-814.226536,-10362.883188,3677.258390
567.088785,-592.164754,-10214.842000,3524.039291
567.089112,148.041188,-9844.739029,3294.210641
567.089440,962.267725,-9474.636058,3677.258390
567.089767,1628.453072,-9178.553681,2681.334243
567.090094,370.102971,-9474.636058,3064.381992
567.090422,814.226536,-9400.615463,2528.115143
567.090749,-296.082377,-9992.780217,2451.505594
567.091076,-814.226536,-10140.821405,1915.238745
567.091404,-592.164754,-9992.780217,1608.800546
567.091731,-814.226536,-9770.718434,1915.238745
567.092059,-370.102971,-9252.574275,2068.457845
567.092386,-592.164754,-9178.553681,2298.286494
567.092713,-962.267725,-9474.636058,1915.238745
567.093041,-1332.370696,-9696.697840,1608.800546
567.093368,-1480.411884,-9030.512492,1532.190996
567.093695,-1258.350101,-8660.409521,1532.190996
567.094023,0.000000,-7994.224174,1762.019645
567.094350,222.061783,-7698.141797,1302.362347
567.094677,592.164754,-8068.244768,1225.752797
567.095005,592.164754,-8438.347739,1225.752797
567.095332,74.020594,-8512.368333,1608.800546
567.095660,0.000000,-8882.471304,1455.581446
567.095987,74.020594,-9474.636058,1532.190996
567.096314,148.041188,-10140.821405,1608.800546
567.096642,888.247130,-10732.986159,1991.848295
567.096969,1258.350101,-10584.944971,1991.848295
567.097296,1036.288319,-9696.697840,2451.505594
567.097624,1554.432478,-10214.842000,2374.896044
567.097951,370.102971,-9622.677246,1455.581446
567.098279,-814.226536,-9326.594869,1302.362347
567.098606,-296.082377,-9104.533087,1072.533697
567.098933,-518.144159,-8068.244768,689.485948
567.099261,-1036.288319,-8142.265362,1225.752797
567.099588,-370.102971,-8364.327145,995.924147
567.099915,-592.164754,-7994.224174,766.095498
567.100243,-1036.288319,-7994.224174,612.876398
567.100570,-666.185348,-7994.224174,689.485948
567.100898,-1258.350101,-7698.141797,306.438199
567.101225,-1332.370696,-7920.203579,536.266849
567.101552,-962.267725,-8216.285956,459.657299
567.101880,-740.205942,-8586.388927,612.876398
567.102207,-370.102971,-8734.430116,766.095498
567.102534,-592.164754,-8882.471304,919.314598
567.102862,-296.082377,-8956.491898,1149.143247
567.103189,-148.041188,-9252.574275,919.314598
567.103517,0.000000,-9104.533087,383.047749
567.103844,222.061783,-9252.574275,459.657299
567.104171,222.061783,-8956.491898,459.657299
567.104499,444.123565,-9474.636058,612.876398
567.104826,0.000000,-9548.656652,995.924147
567.105153,0.000000,-9696.697840,1378.971896
567.105481,0.000000,-9770.718434,919.314598
567.105808,-370.102971,-9474.636058,842.705048
567.106135,296.082377,-9474.636058,76.609550
567.106463,148.041188,-9326.594869,766.095498
567.106790,148.041188,-8882.471304,536.266849
567.107118,-296.082377,-8808.450710,689.485948
567.107445,-148.041188,-8290.306550,612.876398
567.107772,-296.082377,-8660.409521,1225.752797
567.108100,-888.247130,-8512.368333,536.266849
567.108427,-814.226536,-8734.430116,689.485948
567.108754,-962.267725,-9252.574275,459.657299
567.109082,-740.205942,-9104.533087,383.047749
567.109409,-666.185348,-8956.491898,229.828649
567.109737,-814.226536,-8808.450710,306.438199
567.110064,-148.041188,-9326.594869,612.876398
567.110391,0.000000,-9622.677246,459.657299
567.110719,222.061783,-9474.636058,383.047749
567.111046,0.000000,-9548.656652,689.485948
567.111373,0.000000,-9770.718434,383.047749
567.111701,-296.082377,-10066.800811,536.266849
567.112028,-370.102971,-10214.842000,306.438199
567.112356,0.000000,-9992.780217,842.705048
567.112683,0.000000,-9622.677246,1072.533697
567.113010,74.020594,-9400.615463,919.314598
567.113338,296.082377,-9474.636058,689.485948
567.113665,296.082377,-9030.512492,536.266849
567.113992,148.041188,-8808.450710,459.657299
567.114320,-222.061783,-8882.471304,842.705048
567.114647,-148.041188,-8882.471304,842.705048
567.114974,-222.061783,-9030.512492,689.485948
567.115302,-148.041188,-9178.553681,919.314598
567.115629,0.000000,-8882.471304,612.876398
567.115957,74.020594,-8956.491898,689.485948
567.116284,222.061783,-8364.327145,612.876398
567.116611,74.020594,-8586.388927,459.657299
567.116939,-222.061783,-8734.430116,689.485948
567.117266,-370.102971,-8734.430116,153.219100
567.117593,-592.164754,-8882.471304,459.657299
567.117921,-666.185348,-8882.471304,459.657299
567.118248,-888.247130,-9326.594869,0.000000
567.118576,-740.205942,-9178.553681,306.438199
567.118903,-888.247130,-9104.533087,536.266849
567.119230,-666.185348,-8734.430116,383.047749
567.119558,-1036.288319,-8956.491898,229.828649
567.119885,-370.102971,-8364.327145,-459.657299
567.120212,-296.082377,-8438.347739,306.438199
567.120540,-518.144159,-8438.347739,536.266849
567.120867,-592.164754,-8882.471304,612.876398
567.121195,-740.205942,-9030.512492,766.095498
567.121522,-814.226536,-8660.409521,689.485948
567.121849,-592.164754,-9474.636058,536.266849
567.122177,-592.164754,-9474.636058,766.095498
567.122504,-518.144159,-8882.471304,536.266849
567.122831,-296.082377,-8808.450710,612.876398
567.123159,0.000000,-8808.450710,689.485948
567.123486,0.000000,-8956.491898,1072.533697
567.123814,-370.102971,-9252.574275,995.924147
567.124141,-518.144159,-9400.615463,766.095498
567.124468,-666.185348,-9548.656652,842.705048
567.124796,-592.164754,-9474.636058,919.314598
567.125124,-370.102971,-9622.677246,0.000000
567.125451,-148.041188,-9326.594869,536.266849
567.125779,74.020594,-9474.636058,383.047749
567.126106,-222.061783,-9252.574275,536.266849
567.126434,-296.082377,-9326.594869,383.047749
567.126761,-296.082377,-9178.553681,1532.190996
567.127089,-444.123565,-9178.553681,842.705048
567.127417,-740.205942,-9252.574275,536.266849
567.127744,-518.144159,-9104.533087,459.657299
567.128072,-370.102971,-9104.533087,536.266849
567.128399,-296.082377,-8586.388927,536.266849
567.128727,0.000000,-8882.471304,153.219100
567.129054,-148.041188,-8734.430116,306.438199
567.129382,-296.082377,-9030.512492,612.876398
567.129710,0.000000,-9400.615463,459.657299
567.130037,0.000000,-9548.656652,689.485948
567.130365,0.000000,-9770.718434,995.924147
567.130692,0.000000,-9844.739029,689.485948
567.131020,0.000000,-9622.677246,459.657299
567.131347,-148.041188,-9252.574275,383.047749
567.131675,0.000000,-8734.430116,612.876398
567.132003,-370.102971,-8512.368333,536.266849
567.132330,-666.185348,-8956.491898,153.219100
567.132658,-1184.329507,-8808.450710,229.828649
567.132985,-962.267725,-8808.450710,459.657299
567.133313,-1110.308913,-8734.430116,383.047749
567.133640,-592.164754,-8512.368333,1072.533697
567.133968,-148.041188,-8512.368333,612.876398
567.134296,0.000000,-8438.347739,459.657299
567.134623,222.061783,-8290.306550,383.047749
567.134951,296.082377,-8512.368333,306.438199
567.135278,74.020594,-8660.409521,383.047749
567.135606,-148.041188,-9104.533087,383.047749
567.135933,-296.082377,-9992.780217,995.924147
567.136261,-666.185348,-10140.821405,1072.533697
567.136589,-222.061783,-10140.821405,1225.752797
567.136916,222.061783,-9474.636058,766.095498
567.137244,444.123565,-9104.533087,1149.143247
567.137571,740.205942,-8438.347739,229.828649
567.137899,592.164754,-8216.285956,459.657299
567.138226,296.082377,-8216.285956,0.000000
567.138554,-370.102971,-8808.450710,383.047749
567.138882,-814.226536,-8586.388927,689.485948
567.139209,-962.267725,-9474.636058,995.924147
567.139537,-962.267725,-9474.636058,689.485948
567.139864,-740.205942,-9178.553681,766.095498
567.140192,0.000000,-9178.553681,383.047749
567.140519,0.000000,-8142.265362,612.876398
567.140847,370.102971,-8438.347739,153.219100
567.141175,74.020594,-8216.285956,0.000000
567.141502,0.000000,-8364.327145,153.219100
567.141830,-518.144159,-9104.533087,306.438199
567.142157,-888.247130,-9474.636058,919.314598
567.142485,-518.144159,-9696.697840,459.657299
567.142812,-962.267725,-10066.800811,536.266849
567.143140,-740.205942,-9844.739029,383.047749
567.143468,0.000000,-9474.636058,153.219100
567.143795,370.102971,-9104.533087,306.438199
567.144123,814.226536,-8956.491898,0.000000
567.144450,592.164754,-9474.636058,383.047749
567.144778,148.041188,-9474.636058,612.876398
567.145105,0.000000,-9918.759623,689.485948
567.145433,-370.102971,-10140.821405,842.705048
567.145760,-444.123565,-9918.759623,1072.533697
567.146088,-518.144159,-9918.759623,689.485948
567.146416,-370.102971,-9622.677246,153.219100
567.146743,-296.082377,-8882.471304,383.047749
567.147071,-222.061783,-8734.430116,459.657299
567.147398,-296.082377,-8660.409521,1378.971896
567.147726,-814.226536,-8734.430116,536.266849
567.148053,-888.247130,-9030.512492,766.095498
567.148381,-888.247130,-9178.553681,689.485948
567.148709,-962.267725,-9252.574275,842.705048
567.149036,-962.267725,-9252.574275,612.876398
567.149364,-222.061783,-9252.574275,536.266849
567.149691,-592.164754,-8956.491898,536.266849
567.150019,-370.102971,-9030.512492,383.047749
567.150346,-444.123565,-9178.553681,612.876398
567.150674,0.000000,-8808.450710,919.314598
567.151002,-296.082377,-9474.636058,1149.143247
567.151329,-370.102971,-9474.636058,842.705048
567.151657,-444.123565,-9622.677246,919.314598
567.151984,-592.164754,-9400.615463,766.095498
567.152312,-444.123565,-8882.471304,612.876398
567.152639,0.000000,-8142.265362,842.705048
567.152967,-444.123565,-8512.368333,306.438199
567.153295,-518.144159,-8364.327145,153.219100
567.153622,-370.102971,-8364.327145,383.047749
567.153950,-296.082377,-8512.368333,306.438199
567.154277,-296.082377,-8808.450710,842.705048
567.154605,-370.102971,-9104.533087,153.219100
567.154932,-296.082377,-9030.512492,612.876398
567.155260,-148.041188,-8882.471304,383.047749
567.155588,0.000000,-9030.512492,306.438199
567.155915,0.000000,-9474.636058,612.876398
567.156243,0.000000,-9030.512492,229.828649
567.156570,-148.041188,-9252.574275,612.876398
567.156898,-296.082377,-9030.512492,536.266849
567.157225,-296.082377,-9178.553681,612.876398
567.157553,-296.082377,-9030.512492,689.485948
567.157881,0.000000,-8808.450710,689.485948
567.158208,74.020594,-8956.491898,153.219100
567.158536,0.000000,-8660.409521,306.438199
567.158863,0.000000,-8734.430116,612.876398
567.159191,0.000000,-9030.512492,536.266849
567.159518,0.000000,-9104.533087,842.705048
567.159846,0.000000,-9104.533087,842.705048
567.160174,0.000000,-9252.574275,842.705048
567.160501,0.000000,-9252.574275,842.705048
567.160829,-222.061783,-9252.574275,842.705048
567.161156,0.000000,-9178.553681,536.266849
567.161484,-666.185348,-9030.512492,383.047749
567.161811,-444.123565,-8882.471304,536.266849
567.162139,-296.082377,-8882.471304,536.266849
567.162467,-370.102971,-8882.471304,383.047749
567.162794,-444.123565,-9104.533087,306.438199
567.163122,-296.082377,-8882.471304,1072.533697
567.163449,-222.061783,-9030.512492,536.266849
567.163777,0.000000,-9252.574275,689.485948
567.164104,-222.061783,-9252.574275,383.047749
567.164432,-296.082377,-9474.636058,612.876398
567.164760,-296.082377,-9696.697840,995.924147
567.165087,-222.061783,-9474.636058,459.657299
567.165415,0.000000,-9622.677246,689.485948
567.165742,0.000000,-9400.615463,459.657299
567.166070,0.000000,-9326.594869,229.828649
567.166397,-222.061783,-8586.388927,612.876398
567.166725,0.000000,-9030.512492,459.657299
567.167053,74.020594,-9030.512492,459.657299
567.167380,-148.041188,-9104.533087,306.438199
567.167708,-148.041188,-9252.574275,383.047749
567.168035,0.000000,-9104.533087,536.266849
567.168363,0.000000,-9400.615463,383.047749
567.168690,0.000000,-9400.615463,536.266849
567.169018,0.000000,-9474.636058,383.047749
567.169346,0.000000,-9474.636058,536.266849
567.169673,296.082377,-9178.553681,689.485948
567.170001,148.041188,-9104.533087,612.876398
567.170328,0.000000,-9474.636058,306.438199
567.170656,0.000000,-9622.677246,689.485948
567.170983,-370.102971,-9474.636058,612.876398
567.171311,-592.164754,-9326.594869,842.705048
567.171639,-518.144159,-8956.491898,1149.143247
567.171966,-592.164754,-9104.533087,536.266849
567.172294,-592.164754,-8956.491898,612.876398
567.172621,-518.144159,-8734.430116,383.047749
567.172949,-518.144159,-8586.388927,459.657299
567.173276,-444.123565,-8882.471304,689.485948
567.173604,-370.102971,-9030.512492,612.876398
567.173931,-444.123565,-9178.553681,766.095498
567.174259,0.000000,-9400.615463,689.485948
567.174587,-222.061783,-9326.594869,536.266849
567.174914,296.082377,-9696.697840,766.095498
567.175242,0.000000,-9252.574275,612.876398
567.175569,0.000000,-9252.574275,689.485948
567.175897,-74.020594,-9252.574275,766.095498
567.176224,0.000000,-9326.594869,383.047749
567.176552,-148.041188,-9178.553681,459.657299
567.176880,-222.061783,-9178.553681,1149.143247
567.177207,-592.164754,-9030.512492,459.657299
567.177535,-444.123565,-8882.471304,229.828649
567.177862,-370.102971,-9104.533087,153.219100
567.178190,-296.082377,-9400.615463,612.876398
567.178517,0.000000,-8660.409521,306.438199
567.178845,0.000000,-8882.471304,536.266849
567.179173,-148.041188,-9178.553681,229.828649
567.179500,0.000000,-9178.553681,689.485948
567.179828,0.000000,-9178.553681,536.266849
567.180155,-296.082377,-9178.553681,459.657299
567.180483,-296.082377,-9474.636058,459.657299
567.180810,-444.123565,-9400.615463,459.657299
567.181138,-444.123565,-9252.574275,689.485948
567.181466,-518.144159,-9104.533087,689.485948
567.181793,-592.164754,-8956.491898,536.266849
567.182121,-148.041188,-8660.409521,76.609550
567.182448,-370.102971,-8808.450710,459.657299
567.182776,-592.164754,-8660.409521,536.266849
567.183103,-740.205942,-8734.430116,459.657299
567.183431,-592.164754,-8660.409521,612.876398
567.183759,-592.164754,-8734.430116,689.485948
567.184086,-666.185348,-8882.471304,842.705048
567.184414,-518.144159,-9104.533087,689.485948
567.184741,-592.164754,-9252.574275,919.314598
567.185069,-444.123565,-9252.574275,919.314598
567.185396,-740.205942,-9030.512492,766.095498
567.185724,-592.164754,-8882.471304,842.705048
567.186052,-592.164754,-8808.450710,612.876398
567.186379,-740.205942,-8808.450710,383.047749
567.186707,-814.226536,-8808.450710,919.314598
567.187034,-740.205942,-8586.388927,0.000000
567.187362,-592.164754,-8660.409521,612.876398
567.187689,-518.144159,-8808.450710,306.438199
567.188017,-518.144159,-8882.471304,229.828649
567.188345,-222.061783,-8882.471304,612.876398
567.188672,-370.102971,-8660.409521,536.266849
567.189000,0.000000,-8956.491898,612.876398
567.189327,0.000000,-9400.615463,459.657299
567.189655,0.000000,-9326.594869,689.485948
567.189982,0.000000,-9400.615463,383.047749
567.190310,0.000000,-9474.636058,612.876398
567.190638,-148.041188,-9326.594869,536.266849
567.190965,0.000000,-9178.553681,689.485948
567.191293,-148.041188,-8808.450710,306.438199
567.191620,-296.082377,-8734.430116,153.219100
567.191948,-518.144159,-8660.409521,306.438199
567.192275,0.000000,-8364.327145,229.828649
567.192603,-518.144159,-8586.388927,383.047749
567.192931,-370.102971,-8660.409521,459.657299
567.193258,0.000000,-9178.553681,383.047749
567.193586,74.020594,-9178.553681,612.876398
567.193913,296.082377,-9252.574275,1608.800546
567.194241,148.041188,-9400.615463,766.095498
567.194568,0.000000,-9400.615463,689.485948
567.194896,-148.041188,-9474.636058,766.095498
567.195224,-296.082377,-9326.594869,689.485948
567.195551,0.000000,-9252.574275,536.266849
567.195879,0.000000,-9030.512492,689.485948
567.196206,0.000000,-9030.512492,612.876398
567.196534,-148.041188,-9030.512492,689.485948
567.196861,-370.102971,-8956.491898,766.095498
567.197189,-222.061783,-8438.347739,459.657299
567.197517,0.000000,-8808.450710,306.438199
567.197844,0.000000,-9030.512492,383.047749
567.198172,0.000000,-9326.594869,536.266849
567.198499,0.000000,-9548.656652,689.485948
567.198827,0.000000,-9622.677246,689.485948
567.199154,222.061783,-9918.759623,689.485948
567.199482,0.000000,-9474.636058,536.266849
567.199809,0.000000,-9548.656652,459.657299
567.200137,-148.041188,-9770.718434,536.266849
567.200465,-148.041188,-9474.636058,536.266849
567.200792,148.041188,-9548.656652,536.266849
567.201120,-370.102971,-9030.512492,612.876398
567.201447,0.000000,-9252.574275,536.266849
567.201775,-444.123565,-9326.594869,306.438199
567.202102,-370.102971,-9326.594869,383.047749
567.202430,-370.102971,-9104.533087,229.828649
567.202758,-222.061783,-9252.574275,766.095498
567.203085,-222.061783,-9326.594869,383.047749
567.203413,0.000000,-9474.636058,459.657299
567.203740,0.000000,-9326.594869,689.485948
567.204068,0.000000,-9326.594869,995.924147
567.204395,0.000000,-9474.636058,689.485948
567.204723,-296.082377,-9474.636058,536.266849
567.205051,-518.144159,-9252.574275,612.876398
567.205378,-592.164754,-9252.574275,766.095498
567.205706,-444.123565,-8956.491898,612.876398
567.206033,-296.082377,-8364.327145,1072.533697
567.206361,-888.247130,-8660.409521,536.266849
567.206688,-740.205942,-8586.388927,536.266849
567.207016,-888.247130,-8586.388927,306.438199
567.207344,-592.164754,-8660.409521,383.047749
567.207671,-444.123565,-8660.409521,612.876398
567.207999,0.000000,-8808.450710,459.657299
567.208326,-444.123565,-9178.553681,689.485948
567.208654,0.000000,-9178.553681,919.314598
567.208981,0.000000,-9252.574275,689.485948
567.209309,-370.102971,-8882.471304,383.047749
567.209637,-666.185348,-8808.450710,383.047749
567.209964,-370.102971,-9252.574275,612.876398
567.210292,-518.144159,-9178.553681,612.876398
567.210619,-518.144159,-9030.512492,536.266849
567.210947,-444.123565,-8808.450710,459.657299
567.211274,-518.144159,-8512.368333,306.438199
567.211602,-666.185348,-8660.409521,536.266849
567.211930,-592.164754,-8660.409521,459.657299
567.212257,-666.185348,-8660.409521,536.266849
567.212585,-296.082377,-8660.409521,689.485948
567.212912,-370.102971,-8808.450710,919.314598
567.213240,0.000000,-9178.553681,536.266849
567.213567,-296.082377,-9030.512492,536.266849
567.213895,-296.082377,-9104.533087,766.095498
567.214223,-518.144159,-9326.594869,612.876398
567.214550,-518.144159,-9400.615463,919.314598
567.214878,-518.144159,-8882.471304,459.657299
567.215205,-518.144159,-9178.553681,689.485948
567.215533,-666.185348,-9178.553681,536.266849
567.215860,-666.185348,-8808.450710,766.095498
567.216188,-740.205942,-8956.491898,536.266849
567.216516,-370.102971,-8734.430116,766.095498
567.216843,-370.102971,-8512.368333,689.485948
567.217171,-296.082377,-8734.430116,536.266849
567.217498,-296.082377,-9030.512492,306.438199
567.217826,-222.061783,-9104.533087,459.657299
567.218153,0.000000,-8882.471304,536.266849
567.218481,74.020594,-9252.574275,689.485948
567.218809,0.000000,-9326.594869,459.657299
567.219136,0.000000,-9400.615463,459.657299
567.219464,0.000000,-9474.636058,459.657299
567.219791,-148.041188,-9104.533087,1225.752797
567.220119,-296.082377,-8808.450710,536.266849
567.220446,0.000000,-9104.533087,229.828649
567.220774,-222.061783,-9474.636058,459.657299
567.221102,0.000000,-9474.636058,306.438199
567.221429,0.000000,-9030.512492,306.438199
567.221757,0.000000,-8956.491898,0.000000
567.222084,0.000000,-9104.533087,306.438199
567.222412,148.041188,-9400.615463,459.657299
567.222739,148.041188,-9474.636058,459.657299
567.223067,444.123565,-9252.574275,689.485948
567.223395,370.102971,-9400.615463,153.219100
567.223722,-148.041188,-9548.656652,689.485948
567.224050,0.000000,-9622.677246,766.095498
567.224377,-222.061783,-9400.615463,536.266849
567.224705,0.000000,-9030.512492,689.485948
567.225032,-222.061783,-9104.533087,1072.533697
567.225360,-518.144159,-8808.450710,383.047749
567.225688,-814.226536,-8660.409521,536.266849
567.226015,-666.185348,-8586.388927,689.485948
567.226343,-444.123565,-8882.471304,459.657299
567.226670,-296.082377,-9326.594869,459.657299
567.226998,-296.082377,-9252.574275,1149.143247
567.227326,-222.061783,-9252.574275,612.876398
567.227653,-370.102971,-9030.512492,612.876398
567.227981,-296.082377,-9326.594869,842.705048
567.228309,0.000000,-9548.656652,536.266849
567.228636,0.000000,-9326.594869,842.705048
567.228964,-370.102971,-9326.594869,612.876398
567.229292,-518.144159,-9252.574275,995.924147
567.229619,-518.144159,-9252.574275,536.266849
567.229947,-444.123565,-8808.450710,919.314598
567.230274,74.020594,-8882.471304,459.657299
567.230602,-444.123565,-8808.450710,459.657299
567.230930,-370.102971,-9030.512492,459.657299
567.231257,-518.144159,-9030.512492,459.657299
567.231585,-222.061783,-8882.471304,383.047749
567.231913,-296.082377,-8734.430116,459.657299
567.232240,0.000000,-9178.553681,229.828649
567.232568,74.020594,-9326.594869,612.876398
567.232896,222.061783,-9400.615463,536.266849
567.233223,0.000000,-9326.594869,536.266849
567.233551,222.061783,-9178.553681,383.047749
567.233879,222.061783,-9696.697840,612.876398
567.234206,0.000000,-9252.574275,612.876398
567.234534,0.000000,-9252.574275,459.657299
567.234861,-296.082377,-9178.553681,229.828649
567.235189,-148.041188,-8512.368333,229.828649
567.235517,-370.102971,-8586.388927,766.095498
567.235844,-444.123565,-8808.450710,459.657299
567.236172,-518.144159,-8956.491898,536.266849
567.236500,-518.144159,-8808.450710,459.657299
567.236827,-222.061783,-8586.388927,229.828649
567.237155,0.000000,-8808.450710,919.314598
567.237483,0.000000,-8882.471304,766.095498
567.237810,74.020594,-9252.574275,229.828649
567.238138,-222.061783,-9104.533087,612.876398
567.238465,-222.061783,-8956.491898,536.266849
567.238793,-444.123565,-8660.409521,919.314598
567.239121,-222.061783,-9104.533087,842.705048
567.239448,-666.185348,-8956.491898,536.266849
567.239776,-518.144159,-9030.512492,536.266849
567.240104,-740.205942,-8956.491898,612.876398
567.240431,-592.164754,-8882.471304,-153.219100
567.240759,-296.082377,-8808.450710,153.219100
567.241087,-370.102971,-8734.430116,612.876398
567.241414,-370.102971,-9030.512492,536.266849
567.241742,-222.061783,-9030.512492,536.266849
567.242069,-370.102971,-9178.553681,229.828649
567.242397,0.000000,-8808.450710,919.314598
567.242725,-296.082377,-9400.615463,612.876398
567.243052,-296.082377,-9400.615463,612.876398
567.243380,-296.082377,-9326.594869,459.657299
567.243708,-222.061783,-8808.450710,919.314598
567.244035,-222.061783,-9252.574275,842.705048
567.244363,-148.041188,-9252.574275,612.876398
567.244691,-296.082377,-8956.491898,383.047749
567.245018,-370.102971,-8808.450710,383.047749
567.245346,-370.102971,-8956.491898,229.828649
567.245674,-444.123565,-8364.327145,306.438199
567.246001,-370.102971,-8956.491898,306.438199
567.246329,-296.082377,-9178.553681,612.876398
567.246656,-148.041188,-9178.553681,383.047749
567.246984,0.000000,-9326.594869,766.095498
567.247312,0.000000,-9030.512492,612.876398
567.247639,74.020594,-8956.491898,459.657299
567.247967,0.000000,-9252.574275,689.485948
567.248295,-518.144159,-9326.594869,842.705048
567.248622,-518.144159,-9474.636058,766.095498
567.248950,-592.164754,-8808.450710,1072.533697
567.249278,-370.102971,-8882.471304,459.657299
567.249605,-518.144159,-8882.471304,689.485948
567.249933,-518.144159,-8956.491898,229.828649
567.250260,-370.102971,-8808.450710,536.266849
567.250588,-518.144159,-8586.388927,383.047749
567.250916,-222.061783,-8660.409521,689.485948
567.251243,0.000000,-9030.512492,536.266849
567.251571,-296.082377,-9030.512492,689.485948
567.251899,0.000000,-9474.636058,306.438199
567.252226,0.000000,-9474.636058,612.876398
567.252554,0.000000,-9326.594869,612.876398
567.252882,-296.082377,-9622.677246,383.047749
567.253209,-222.061783,-9548.656652,383.047749
567.253537,0.000000,-9474.636058,536.266849
567.253865,0.000000,-9252.574275,229.828649
567.254192,0.000000,-9030.512492,153.219100
567.254520,-222.061783,-9178.553681,766.095498
567.254847,-296.082377,-8808.450710,383.047749
567.255175,0.000000,-9030.512492,153.219100
567.255503,0.000000,-8882.471304,306.438199
567.255830,0.000000,-9030.512492,842.705048
567.256158,370.102971,-8808.450710,76.609550
567.256486,0.000000,-9548.656652,612.876398
567.256813,148.041188,-9696.697840,612.876398
567.257141,0.000000,-9622.677246,612.876398
567.257469,0.000000,-9622.677246,919.314598
567.257796,0.000000,-9474.636058,689.485948
567.258124,0.000000,-9548.656652,766.095498
567.258451,-296.082377,-9474.636058,612.876398
567.258779,-222.061783,-9252.574275,612.876398
567.259107,-222.061783,-8956.491898,459.657299
567.259434,-444.123565,-8364.327145,689.485948
567.259762,-296.082377,-8956.491898,766.095498
567.260090,-444.123565,-8882.471304,612.876398
567.260417,-666.185348,-9104.533087,689.485948
567.260745,-666.185348,-9252.574275,766.095498
567.261073,-592.164754,-8882.471304,1072.533697
567.261400,-518.144159,-8586.388927,995.924147
567.261728,-296.082377,-9252.574275,995.924147
567.262056,0.000000,-9178.553681,689.485948
567.262383,-592.164754,-9104.533087,689.485948
567.262711,0.000000,-9326.594869,842.705048
567.263038,-518.144159,-8956.491898,612.876398
567.263366,-666.185348,-8956.491898,689.485948
567.263694,-814.226536,-8956.491898,689.485948
567.264021,-814.226536,-8808.450710,536.266849
567.264349,-518.144159,-8438.347739,536.266849
567.264677,-296.082377,-8438.347739,766.095498
567.265004,-444.123565,-8512.368333,229.828649
567.265332,0.000000,-8586.388927,229.828649
567.265660,0.000000,-8734.430116,153.219100
567.265987,-222.061783,-8956.491898,612.876398
567.266315,-296.082377,-9178.553681,612.876398
567.266642,0.000000,-9252.574275,689.485948
567.266970,-222.061783,-9326.594869,536.266849
567.267298,-296.082377,-9326.594869,536.266849
567.267625,-444.123565,-9326.594869,689.485948
567.267953,-148.041188,-8808.450710,919.314598
567.268281,-148.041188,-8734.430116,153.219100
567.268608,-370.102971,-8586.388927,383.047749
567.268936,-592.164754,-8734.430116,229.828649
567.269264,-666.185348,-8734.430116,306.438199
567.269591,-370.102971,-8882.471304,459.657299
567.269919,-444.123565,-9104.533087,229.828649
567.270247,-444.123565,-8882.471304,153.219100
567.270574,-296.082377,-9326.594869,459.657299
567.270902,0.000000,-9030.512492,536.266849
567.271229,0.000000,-9030.512492,766.095498
567.271557,0.000000,-9104.533087,459.657299
567.271885,-148.041188,-8956.491898,536.266849
567.272212,-148.041188,-9326.594869,612.876398
567.272540,-740.205942,-9252.574275,612.876398
567.272868,-592.164754,-9030.512492,766.095498
567.273195,-1036.288319,-8364.327145,995.924147
567.273523,-296.082377,-9178.553681,1072.533697
567.273851,-592.164754,-8882.471304,306.438199
567.274178,-518.144159,-9178.553681,536.266849
567.274506,-296.082377,-8808.450710,306.438199
567.274833,-370.102971,-8512.368333,1149.143247
567.275161,0.000000,-8660.409521,459.657299
567.275489,0.000000,-9400.615463,995.924147
567.275816,-148.041188,-9474.636058,612.876398
567.276144,-148.041188,-9326.594869,612.876398
567.276472,0.000000,-9252.574275,1072.533697
567.276799,-222.061783,-9030.512492,536.266849
567.277127,-296.082377,-9474.636058,689.485948
567.277455,0.000000,-9474.636058,229.828649
567.277782,-222.061783,-9326.594869,612.876398
567.278110,-296.082377,-8956.491898,459.657299
567.278438,-296.082377,-9252.574275,842.705048
567.278765,-518.144159,-9252.574275,536.266849
567.279093,-444.123565,-9104.533087,383.047749
567.279420,-222.061783,-8956.491898,536.266849
567.279748,-148.041188,-9030.512492,459.657299
567.280076,0.000000,-9178.553681,842.705048
567.280403,0.000000,-9326.594869,689.485948
567.280731,222.061783,-9474.636058,536.266849
567.281059,0.000000,-9400.615463,612.876398
567.281386,0.000000,-9474.636058,536.266849
567.281714,0.000000,-9252.574275,995.924147
567.282042,222.061783,-9326.594869,459.657299
567.282369,0.000000,-9178.553681,689.485948
567.282697,0.000000,-9474.636058,383.047749
567.283024,-222.061783,-9178.553681,306.438199
567.283352,-296.082377,-8734.430116,459.657299
567.283680,-222.061783,-8882.471304,459.657299
567.284007,-148.041188,-9104.533087,459.657299
567.284335,-148.041188,-9178.553681,229.828649
567.284663,0.000000,-9104.533087,306.438199
567.284990,0.000000,-9326.594869,536.266849
567.285318,222.061783,-9770.718434,459.657299
567.285646,0.000000,-9252.574275,689.485948
567.285973,0.000000,-9326.594869,612.876398
567.286301,-148.041188,-9400.615463,612.876398
567.286629,0.000000,-9400.615463,383.047749
567.286956,222.061783,-8956.491898,536.266849
567.287284,0.000000,-9104.533087,612.876398
567.287611,-444.123565,-9104.533087,612.876398
567.287939,-444.123565,-8808.450710,459.657299
567.288267,-666.185348,-9030.512492,536.266849
567.288594,-518.144159,-8882.471304,995.924147
567.288922,-444.123565,-8512.368333,612.876398
567.289250,-518.144159,-8882.471304,612.876398
567.289577,-518.144159,-9178.553681,766.095498
567.289905,-296.082377,-9326.594869,842.705048
567.290233,-370.102971,-9252.574275,536.266849
567.290560,0.000000,-9030.512492,919.314598
567.290888,-444.123565,-9326.594869,842.705048
567.291215,-592.164754,-9474.636058,842.705048
567.291543,-666.185348,-9252.574275,842.705048
567.291871,-296.082377,-9030.512492,612.876398
567.292198,-592.164754,-8734.430116,766.095498
567.292526,-370.102971,-9178.553681,536.266849
567.292854,-740.205942,-8808.450710,612.876398
567.293181,-740.205942,-8734.430116,459.657299
567.293509,-740.205942,-8438.347739,612.876398
567.293837,-296.082377,-8586.388927,229.828649
567.294164,-592.164754,-8660.409521,306.438199
567.294492,-148.041188,-8956.491898,612.876398
567.294820,0.000000,-9030.512492,536.266849
567.295147,0.000000,-9104.533087,612.876398
567.295475,0.000000,-9400.615463,306.438199
567.295802,0.000000,-9030.512492,612.876398
567.296130,-222.061783,-9252.574275,459.657299
567.296458,-296.082377,-9178.553681,459.657299
567.296785,-222.061783,-9252.574275,536.266849
567.297113,-148.041188,-9400.615463,612.876398
567.297441,-518.144159,-8882.471304,1072.533697
567.297768,-222.061783,-8956.491898,306.438199
567.298096,-444.123565,-8808.450710,306.438199
567.298424,-444.123565,-8586.388927,459.657299
567.298751,-444.123565,-8660.409521,229.828649
567.299079,-296.082377,-8290.306550,229.828649
567.299406,-370.102971,-9030.512492,689.485948
567.299734,-444.123565,-9030.512492,766.095498
567.300062,-518.144159,-9252.574275,612.876398
567.300389,-222.061783,-9178.553681,689.485948
567.300717,-222.061783,-8586.388927,1302.362347
567.301045,0.000000,-9326.594869,766.095498
567.301372,-370.102971,-9104.533087,842.705048
567.301700,-518.144159,-8956.491898,766.095498
567.302028,-592.164754,-8956.491898,689.485948
567.302355,-444.123565,-8734.430116,919.314598
567.302683,-666.185348,-9030.512492,536.266849
567.303011,-814.226536,-8956.491898,536.266849
567.303338,-592.164754,-8956.491898,689.485948
567.303666,-444.123565,-9030.512492,766.095498
567.303993,-296.082377,-8956.491898,612.876398
567.304321,0.000000,-8808.450710,919.314598
567.304649,0.000000,-9326.594869,766.095498
567.304976,0.000000,-9474.636058,766.095498
567.305304,0.000000,-9548.656652,536.266849
567.305632,0.000000,-9474.636058,689.485948
567.305959,0.000000,-9548.656652,766.095498
567.306287,-518.144159,-9474.636058,689.485948
567.306615,0.000000,-9400.615463,612.876398
567.306942,0.000000,-9400.615463,383.047749
567.307270,-296.082377,-9178.553681,306.438199
567.307597,-222.061783,-8808.450710,689.485948
567.307925,-222.061783,-8734.430116,0.000000
567.308253,74.020594,-9030.512492,229.828649
567.308580,0.000000,-8956.491898,383.047749
567.308908,148.041188,-9326.594869,459.657299
567.309236,296.082377,-9622.677246,383.047749
567.309563,296.082377,-9696.697840,459.657299
567.309891,0.000000,-9548.656652,689.485948
567.310219,0.000000,-9400.615463,766.095498
567.310546,0.000000,-9400.615463,536.266849
567.310874,-148.041188,-9622.677246,536.266849
567.311201,74.020594,-9400.615463,383.047749
567.311529,0.000000,-9178.553681,766.095498
567.311857,-444.123565,-9030.512492,612.876398
567.312184,-518.144159,-9030.512492,766.095498
567.312512,-518.144159,-8882.471304,383.047749
567.312840,-666.185348,-8808.450710,306.438199
567.313167,-518.144159,-9030.512492,919.314598
567.313495,-518.144159,-8882.471304,766.095498
567.313823,-370.102971,-9104.533087,689.485948
567.314150,-518.144159,-9178.553681,689.485948
567.314478,-444.123565,-9030.512492,1685.410096
567.314806,0.000000,-8956.491898,383.047749
567.315133,-370.102971,-9178.553681,919.314598
567.315461,-666.185348,-9104.533087,766.095498
567.315788,-518.144159,-9178.553681,689.485948
567.316116,-444.123565,-9252.574275,1149.143247
567.316444,-370.102971,-8586.388927,689.485948
567.316771,-518.144159,-9030.512492,306.438199
567.317099,-592.164754,-8808.450710,153.219100
567.317427,-592.164754,-9030.512492,229.828649
567.317754,-370.102971,-9104.533087,229.828649
567.318082,222.061783,-8808.450710,383.047749
567.318410,0.000000,-9104.533087,383.047749
567.318737,0.000000,-9326.594869,383.047749
567.319065,148.041188,-9326.594869,229.828649
567.319392,148.041188,-9252.574275,536.266849
567.319720,444.123565,-9252.574275,229.828649
567.320048,74.020594,-9474.636058,536.266849
567.320375,0.000000,-9400.615463,536.266849
567.320703,0.000000,-9178.553681,383.047749
567.321031,0.000000,-9030.512492,536.266849
567.321358,-222.061783,-8660.409521,689.485948
567.321686,-148.041188,-8438.347739,229.828649
567.322014,0.000000,-8734.430116,0.000000
567.322341,-296.082377,-8660.409521,229.828649
567.322669,-222.061783,-8660.409521,612.876398
567.322997,-296.082377,-8808.450710,536.266849
567.323324,-222.061783,-8808.450710,612.876398
567.323652,-148.041188,-8956.491898,536.266849
567.323979,74.020594,-9252.574275,689.485948
567.324307,-296.082377,-9400.615463,842.705048
567.324635,0.000000,-9474.636058,689.485948
567.324962,-370.102971,-8808.450710,689.485948
567.325290,-148.041188,-9400.615463,919.314598
567.325618,-444.123565,-9104.533087,842.705048
567.325945,-518.144159,-9252.574275,689.485948
567.326273,-518.144159,-8882.471304,766.095498
567.326601,-814.226536,-8734.430116,1149.143247
567.326928,-518.144159,-8882.471304,612.876398
567.327256,-814.226536,-8734.430116,612.876398
567.327583,-740.205942,-8660.409521,536.266849
567.327911,-370.102971,-8882.471304,536.266849
567.328239,-222.061783,-9104.533087,919.314598
567.328566,-222.061783,-9030.512492,1225.752797
567.328894,-370.102971,-9252.574275,612.876398
567.329221,-222.061783,-9104.533087,689.485948
567.329549,-148.041188,-9326.594869,689.485948
567.329876,-592.164754,-9326.594869,0.000000
567.330204,-592.164754,-9252.574275,766.095498
567.330531,-740.205942,-9400.615463,689.485948
567.330859,-444.123565,-9326.594869,612.876398
567.331186,-518.144159,-9030.512492,459.657299
567.331514,-444.123565,-9326.594869,306.438199
567.331842,-296.082377,-8660.409521,536.266849
567.332169,0.000000,-8956.491898,612.876398
567.332497,-222.061783,-8882.471304,306.438199
567.332824,-296.082377,-9030.512492,459.657299
567.333152,-296.082377,-9178.553681,536.266849
567.333479,222.061783,-9178.553681,766.095498
567.333807,0.000000,-9400.615463,383.047749
567.334134,0.000000,-9400.615463,612.876398
567.334462,0.000000,-9326.594869,612.876398
567.334790,-148.041188,-9326.594869,612.876398
567.335117,0.000000,-9104.533087,306.438199
567.335445,0.000000,-8660.409521,612.876398
567.335772,-370.102971,-9030.512492,383.047749
567.336100,-444.123565,-8808.450710,306.438199
567.336427,-296.082377,-9030.512492,536.266849
567.336755,-444.123565,-8882.471304,306.438199
567.337082,0.000000,-9030.512492,612.876398
567.337410,0.000000,-9104.533087,229.828649
567.337738,0.000000,-9252.574275,383.047749
567.338065,-296.082377,-9104.533087,612.876398
567.338393,0.000000,-9252.574275,383.047749
567.338720,0.000000,-9252.574275,306.438199
567.339048,148.041188,-9474.636058,153.219100
567.339375,0.000000,-9252.574275,689.485948
567.339703,0.000000,-9400.615463,766.095498
567.340030,-148.041188,-9326.594869,689.485948
567.340358,0.000000,-9696.697840,76.609550
567.340685,-518.144159,-8586.388927,919.314598
567.341013,-740.205942,-8882.471304,536.266849
567.341341,-592.164754,-9030.512492,612.876398
567.341668,-370.102971,-8956.491898,459.657299
567.341996,-370.102971,-8882.471304,536.266849
567.342323,-148.041188,-8956.491898,1072.533697
567.342651,-296.082377,-9030.512492,689.485948
567.342978,-370.102971,-9178.553681,536.266849
567.343306,-222.061783,-9178.553681,612.876398
567.343633,-370.102971,-9178.553681,536.266849
567.343961,-370.102971,-9474.636058,1455.581446
567.344289,-296.082377,-9474.636058,689.485948
567.344616,-296.082377,-9400.615463,842.705048
567.344944,-222.061783,-9474.636058,689.485948
567.345271,-296.082377,-9252.574275,919.314598
567.345599,0.000000,-8808.450710,766.095498
567.345926,-296.082377,-9104.533087,1149.143247
567.346254,-296.082377,-8956.491898,689.485948
567.346581,-592.164754,-8808.450710,612.876398
567.346909,-444.123565,-8808.450710,306.438199
567.347237,-444.123565,-8660.409521,536.266849
567.347564,0.000000,-8734.430116,536.266849
567.347892,0.000000,-8808.450710,383.047749
567.348219,0.000000,-9030.512492,383.047749
567.348547,0.000000,-9178.553681,459.657299
567.348874,0.000000,-9030.512492,0.000000
567.349202,0.000000,-9326.594869,153.219100
567.349529,-296.082377,-9178.553681,612.876398
567.349857,-370.102971,-9252.574275,536.266849
567.350184,0.000000,-9326.594869,229.828649
567.350512,-370.102971,-9104.533087,383.047749
567.350840,-296.082377,-8808.450710,229.828649
567.351167,-370.102971,-8660.409521,383.047749
567.351495,-518.144159,-8586.388927,229.828649
567.351822,-444.123565,-8808.450710,306.438199
567.352150,-296.082377,-8882.471304,306.438199
567.352477,-222.061783,-8808.450710,689.485948
567.352805,0.000000,-8808.450710,612.876398
567.353132,-148.041188,-9030.512492,536.266849
567.353460,-222.061783,-9178.553681,689.485948
567.353788,-296.082377,-9252.574275,842.705048
567.354115,-296.082377,-9030.512492,919.314598
567.354443,-370.102971,-9030.512492,689.485948
567.354770,-814.226536,-9030.512492,536.266849
567.355098,-666.185348,-8808.450710,459.657299
567.355425,-888.247130,-8512.368333,612.876398
567.355753,-666.185348,-9178.553681,919.314598
567.356080,-518.144159,-8438.347739,536.266849
567.356408,-592.164754,-8660.409521,306.438199
567.356736,-814.226536,-8734.430116,459.657299
567.357063,-666.185348,-9030.512492,383.047749
567.357391,-370.102971,-8808.450710,459.657299
567.357718,-296.082377,-8882.471304,919.314598
567.358046,148.041188,-9030.512492,612.876398
567.358373,-222.061783,-9474.636058,612.876398
567.358701,0.000000,-9400.615463,612.876398
567.359028,0.000000,-9326.594869,612.876398
567.359356,0.000000,-8660.409521,842.705048
567.359684,148.041188,-9400.615463,383.047749
567.360011,0.000000,-9178.553681,306.438199
567.360339,0.000000,-9104.533087,306.438199
567.360666,0.000000,-9030.512492,0.000000
567.360994,74.020594,-8882.471304,0.000000
567.361321,0.000000,-9104.533087,459.657299
567.361649,0.000000,-9474.636058,383.047749
567.361976,0.000000,-9326.594869,383.047749
567.362304,0.000000,-9474.636058,536.266849
567.362631,74.020594,-9400.615463,459.657299
567.362959,74.020594,-9252.574275,919.314598
567.363287,148.041188,-9474.636058,536.266849
567.363614,0.000000,-9474.636058,459.657299
567.363942,-222.061783,-9622.677246,612.876398
567.364269,-296.082377,-9400.615463,689.485948
567.364597,-666.185348,-9104.533087,1072.533697
567.364924,-296.082377,-9104.533087,306.438199
567.365252,-518.144159,-9104.533087,459.657299
567.365579,-592.164754,-9252.574275,766.095498
567.365907,-740.205942,-9178.553681,766.095498
567.366235,-518.144159,-8882.471304,689.485948
567.366562,-444.123565,-8956.491898,536.266849
567.366890,-370.102971,-9400.615463,995.924147
567.367217,-444.123565,-9474.636058,842.705048
567.367545,-444.123565,-9474.636058,1149.143247
567.367872,-296.082377,-9770.718434,766.095498
567.368200,-592.164754,-9474.636058,536.266849
567.368527,0.000000,-9400.615463,919.314598
567.368855,0.000000,-9178.553681,689.485948
567.369183,0.000000,-9252.574275,689.485948
567.369510,-148.041188,-9400.615463,689.485948
567.369838,0.000000,-9178.553681,1149.143247
567.370165,-444.123565,-9030.512492,383.047749
567.370493,-518.144159,-9178.553681,383.047749
567.370820,-370.102971,-8956.491898,383.047749
567.371148,-370.102971,-9178.553681,306.438199
567.371475,-222.061783,-8882.471304,383.047749
567.371803,-148.041188,-8808.450710,153.219100
567.372130,74.020594,-9252.574275,76.609550
567.372458,0.000000,-9326.594869,229.828649
567.372786,148.041188,-9326.594869,306.438199
567.373113,-148.041188,-8956.491898,612.876398
567.373441,148.041188,-9326.594869,459.657299
567.373768,0.000000,-9400.615463,383.047749
567.374096,0.000000,-9104.533087,229.828649
567.374423,0.000000,-8956.491898,229.828649
567.374751,74.020594,-8586.388927,306.438199
567.375078,-148.041188,-8660.409521,76.609550
567.375406,-444.123565,-8734.430116,459.657299
567.375734,-666.185348,-8660.409521,229.828649
567.376061,-370.102971,-8734.430116,459.657299
567.376389,-444.123565,-8586.388927,536.266849
567.376716,-296.082377,-8808.450710,1149.143247
567.377044,-370.102971,-8734.430116,766.095498
567.377371,-370.102971,-8956.491898,689.485948
567.377699,-444.123565,-8808.450710,766.095498
567.378026,-518.144159,-9030.512492,459.657299
567.378354,-666.185348,-8586.388927,536.266849
567.378682,-444.123565,-8882.471304,919.314598
567.379009,-740.205942,-8882.471304,689.485948
567.379337,-814.226536,-8808.450710,612.876398
567.379664,-666.185348,-8808.450710,842.705048
567.379992,-740.205942,-8808.450710,766.095498
567.380319,-666.185348,-8438.347739,229.828649
567.380647,-370.102971,-8956.491898,536.266849
567.380974,-518.144159,-8882.471304,536.266849
567.381302,-222.061783,-9178.553681,919.314598
567.381629,-444.123565,-9104.533087,919.314598
567.381957,-296.082377,-9252.574275,842.705048
567.382285,0.000000,-9548.656652,612.876398
567.382612,0.000000,-9622.677246,766.095498
567.382940,-148.041188,-9474.636058,689.485948
567.383267,0.000000,-9474.636058,536.266849
567.383595,-296.082377,-8660.409521,459.657299
567.383922,0.000000,-9252.574275,536.266849
567.384250,-296.082377,-9030.512492,153.219100
567.384577,-222.061783,-9104.533087,306.438199
567.384905,-296.082377,-9104.533087,459.657299
567.385233,-148.041188,-9030.512492,0.000000
567.385560,-148.041188,-9030.512492,459.657299
567.385888,0.000000,-9178.553681,306.438199
567.386215,0.000000,-9104.533087,383.047749
567.386543,0.000000,-9104.533087,153.219100
567.386870,148.041188,-9326.594869,459.657299
567.387198,222.061783,-9326.594869,459.657299
567.387525,74.020594,-9400.615463,612.876398
567.387853,0.000000,-9696.697840,306.438199
567.388181,-444.123565,-9548.656652,612.876398
567.388508,-296.082377,-9548.656652,766.095498
567.388836,74.020594,-9326.594869,612.876398
567.389163,-148.041188,-9030.512492,689.485948
567.389491,-370.102971,-8956.491898,383.047749
567.389818,-370.102971,-9030.512492,459.657299
567.390146,-444.123565,-9104.533087,689.485948
567.390473,-222.061783,-8808.450710,459.657299
567.390801,-296.082377,-9104.533087,842.705048
567.391129,-296.082377,-9326.594869,689.485948
567.391456,-370.102971,-9326.594869,689.485948
567.391784,-222.061783,-9104.533087,612.876398
567.392111,-370.102971,-8882.471304,1072.533697
567.392439,-444.123565,-9178.553681,612.876398
567.392766,-592.164754,-9252.574275,612.876398
567.393094,-814.226536,-9400.615463,766.095498
567.393421,-740.205942,-8956.491898,536.266849
567.393749,-814.226536,-8882.471304,689.485948
567.394076,0.000000,-9104.533087,536.266849
567.394404,-370.102971,-9104.533087,536.266849
567.394732,-296.082377,-8808.450710,306.438199
567.395059,0.000000,-8956.491898,459.657299
567.395387,-148.041188,-8956.491898,459.657299
567.395714,74.020594,-9104.533087,229.828649
567.396042,0.000000,-9400.615463,306.438199
567.396369,222.061783,-9548.656652,842.705048
567.396697,148.041188,-9548.656652,689.485948
567.397024,0.000000,-9474.636058,459.657299
567.397352,222.061783,-9400.615463,766.095498
567.397680,-222.061783,-9104.533087,612.876398
567.398007,0.000000,-9104.533087,306.438199
567.398335,-148.041188,-8956.491898,229.828649
567.398662,-296.082377,-8734.430116,153.219100
567.398990,-666.185348,-8660.409521,919.314598
567.399317,-296.082377,-8512.368333,306.438199
567.399645,-444.123565,-8808.450710,536.266849
567.399972,-222.061783,-8956.491898,229.828649
567.400300,-148.041188,-9178.553681,612.876398
567.400628,-148.041188,-8734.430116,306.438199
567.400955,148.041188,-8882.471304,766.095498
567.401283,0.000000,-9178.553681,612.876398
567.401610,-74.020594,-9030.512492,536.266849
567.401938,-148.041188,-9326.594869,459.657299
567.402265,0.000000,-9252.574275,612.876398
567.402593,-444.123565,-9104.533087,536.266849
567.402920,-740.205942,-9030.512492,766.095498
567.403248,-666.185348,-9030.512492,536.266849
567.403575,-444.123565,-8660.409521,383.047749
567.403903,-518.144159,-8660.409521,459.657299
567.404231,-296.082377,-8660.409521,229.828649
567.404558,-518.144159,-8882.471304,612.876398
567.404886,-370.102971,-9030.512492,612.876398
567.405213,-444.123565,-9104.533087,459.657299
567.405541,-592.164754,-9178.553681,766.095498
567.405868,0.000000,-9474.636058,766.095498
567.406196,0.000000,-9474.636058,1072.533697
567.406523,-296.082377,-9400.615463,766.095498
567.406851,-222.061783,-9252.574275,612.876398
567.407179,-370.102971,-9178.553681,766.095498
567.407506,-296.082377,-9030.512492,842.705048
567.407834,-592.164754,-8882.471304,766.095498
567.408161,-296.082377,-8956.491898,383.047749
567.408489,-444.123565,-8882.471304,383.047749
567.408816,-666.185348,-8808.450710,383.047749
567.409144,-518.144159,-8956.491898,459.657299
567.409471,-370.102971,-8586.388927,-306.438199
567.409799,-296.082377,-8808.450710,459.657299
567.410127,0.000000,-8882.471304,459.657299
567.410454,-222.061783,-8956.491898,459.657299
567.410782,-148.041188,-9104.533087,612.876398
567.411109,74.020594,-9326.594869,995.924147
567.411437,0.000000,-9252.574275,766.095498
567.411764,0.000000,-9104.533087,919.314598
567.412092,-222.061783,-9326.594869,689.485948
567.412419,-370.102971,-9326.594869,536.266849
567.412747,0.000000,-9178.553681,766.095498
567.413075,0.000000,-8808.450710,153.219100
567.413402,-518.144159,-8660.409521,306.438199
567.413730,-518.144159,-8882.471304,459.657299
567.414057,-740.205942,-9178.553681,229.828649
567.414385,-296.082377,-8734.430116,612.876398
567.414712,0.000000,-8586.388927,689.485948
567.415040,-148.041188,-9252.574275,459.657299
567.415367,0.000000,-9252.574275,459.657299
567.415695,0.000000,-9400.615463,766.095498
567.416022,0.000000,-9474.636058,689.485948
567.416350,0.000000,-9252.574275,842.705048
567.416678,-370.102971,-9474.636058,536.266849
567.417005,-444.123565,-9548.656652,459.657299
567.417333,-444.123565,-9474.636058,536.266849
567.417660,-444.123565,-9326.594869,612.876398
567.417988,-296.082377,-9178.553681,766.095498
567.418315,-444.123565,-8808.450710,306.438199
567.418643,-370.102971,-9030.512492,383.047749
567.418970,-370.102971,-8660.409521,383.047749
567.419298,-370.102971,-8882.471304,229.828649
567.419626,0.000000,-9474.636058,919.314598
567.419953,0.000000,-9030.512492,459.657299
567.420281,-148.041188,-9400.615463,612.876398
567.420608,0.000000,-9474.636058,689.485948
567.420936,0.000000,-9474.636058,766.095498
567.421263,0.000000,-9326.594869,612.876398
567.421591,-296.082377,-9030.512492,689.485948
567.421918,-222.061783,-9252.574275,689.485948
567.422246,-592.164754,-9104.533087,612.876398
567.422574,-518.144159,-9104.533087,689.485948
567.422901,-444.123565,-9104.533087,536.266849
567.423229,0.000000,-8882.471304,1072.533697
567.423556,-518.144159,-8660.409521,536.266849
567.423884,-148.041188,-8734.430116,306.438199
567.424211,-296.082377,-8882.471304,383.047749
567.424539,0.000000,-8956.491898,383.047749
567.424866,74.020594,-9030.512492,306.438199
567.425194,148.041188,-9400.615463,689.485948
567.425521,0.000000,-9474.636058,689.485948
567.425849,0.000000,-9252.574275,536.266849
567.426177,-148.041188,-9400.615463,919.314598
567.426504,-444.123565,-9474.636058,1149.143247
567.426832,-370.102971,-9104.533087,1225.752797
567.427159,-370.102971,-8956.491898,536.266849
567.427487,-370.102971,-8660.409521,612.876398
567.427814,-518.144159,-8808.450710,612.876398
567.428142,-444.123565,-8734.430116,536.266849
567.428469,-296.082377,-8882.471304,995.924147
567.428797,-370.102971,-8808.450710,459.657299
567.429125,-370.102971,-9030.512492,536.266849
567.429452,-370.102971,-9178.553681,689.485948
567.429780,-222.061783,-9326.594869,536.266849
567.430107,0.000000,-9252.574275,612.876398
567.430435,-148.041188,-9400.615463,612.876398
567.430762,-222.061783,-9548.656652,766.095498
567.431090,-148.041188,-9622.677246,842.705048
567.431417,-444.123565,-9400.615463,612.876398
567.431745,-370.102971,-9326.594869,306.438199
567.432072,-518.144159,-9030.512492,689.485948
567.432400,-666.185348,-8808.450710,383.047749
567.432728,-592.164754,-8660.409521,229.828649
567.433055,-444.123565,-8512.368333,383.047749
567.433383,-296.082377,-8808.450710,383.047749
567.433710,-814.226536,-8216.285956,459.657299
567.434038,-518.144159,-8734.430116,306.438199
567.434365,-296.082377,-8660.409521,306.438199
567.434693,0.000000,-9178.553681,459.657299
567.435020,-222.061783,-9178.553681,536.266849
567.435348,-222.061783,-9326.594869,1072.533697
567.435676,-222.061783,-9326.594869,536.266849
567.436003,0.000000,-9326.594869,459.657299
567.436331,-370.102971,-9326.594869,536.266849
567.436658,-370.102971,-9252.574275,459.657299
567.436986,0.000000,-9474.636058,612.876398
567.437313,-148.041188,-9104.533087,842.705048
567.437641,-222.061783,-8956.491898,383.047749
567.437968,-518.144159,-8882.471304,0.000000
567.438296,-592.164754,-9178.553681,0.000000
567.438623,-592.164754,-8808.450710,536.266849
567.438951,-148.041188,-8734.430116,306.438199
567.439279,-148.041188,-9030.512492,383.047749
567.439606,0.000000,-9326.594869,383.047749
567.439934,-296.082377,-9474.636058,383.047749
567.440261,0.000000,-9474.636058,383.047749
567.440589,0.000000,-9252.574275,919.314598
567.440916,0.000000,-9178.553681,842.705048
567.441244,-444.123565,-9400.615463,689.485948
567.441571,-370.102971,-8956.491898,612.876398
567.441899,-296.082377,-8882.471304,459.657299
567.442226,148.041188,-8734.430116,1072.533697
567.442554,-518.144159,-8882.471304,766.095498
567.442882,-296.082377,-8882.471304,689.485948
567.443209,-518.144159,-8956.491898,536.266849
567.443537,-444.123565,-9104.533087,612.876398
567.443864,-296.082377,-8734.430116,689.485948
567.444192,74.020594,-9622.677246,612.876398
567.444519,74.020594,-9400.615463,842.705048
567.444847,74.020594,-9474.636058,919.314598
567.445174,0.000000,-9474.636058,766.095498
567.445502,0.000000,-9474.636058,842.705048
567.445830,-370.102971,-9400.615463,536.266849
567.446157,-444.123565,-9326.594869,612.876398
567.446485,-370.102971,-9104.533087,766.095498
567.446812,-518.144159,-9252.574275,689.485948
567.447140,-444.123565,-9178.553681,459.657299
567.447467,-444.123565,-9104.533087,536.266849
567.447795,-444.123565,-8882.471304,536.266849
567.448122,-666.185348,-8956.491898,229.828649
567.448450,-592.164754,-9030.512492,383.047749
567.448777,-370.102971,-9030.512492,536.266849
567.449105,148.041188,-9548.656652,383.047749
567.449433,-222.061783,-9474.636058,612.876398
567.449760,-222.061783,-9548.656652,766.095498
567.450088,-148.041188,-9696.697840,383.047749
567.450415,-370.102971,-9548.656652,536.266849
567.450743,-296.082377,-9030.512492,229.828649
567.451070,-148.041188,-9326.594869,536.266849
567.451398,-296.082377,-9400.615463,536.266849
567.451725,-222.061783,-9400.615463,612.876398
567.452053,-370.102971,-9178.553681,383.047749
567.452380,0.000000,-9178.553681,842.705048
567.452708,-370.102971,-8882.471304,306.438199
567.453036,-370.102971,-9104.533087,612.876398
567.453363,-370.102971,-8956.491898,612.876398
567.453691,-74.020594,-9178.553681,536.266849
567.454018,-296.082377,-8956.491898,459.657299
567.454346,-222.061783,-8364.327145,536.266849
567.454673,-148.041188,-8882.471304,919.314598
567.455001,-148.041188,-9104.533087,689.485948
567.455328,-296.082377,-9178.553681,536.266849
567.455656,-444.123565,-8956.491898,612.876398
567.455984,0.000000,-8586.388927,383.047749
567.456311,-148.041188,-9178.553681,306.438199
567.456639,-296.082377,-8882.471304,306.438199
567.456966,-444.123565,-8586.388927,153.219100
567.457294,-444.123565,-8734.430116,153.219100
567.457621,-148.041188,-8586.388927,536.266849
567.457949,-222.061783,-8734.430116,0.000000
567.458276,-518.144159,-8882.471304,306.438199
567.458604,0.000000,-8882.471304,306.438199
567.458931,-222.061783,-8882.471304,459.657299
567.459259,0.000000,-8734.430116,383.047749
567.459587,74.020594,-8808.450710,459.657299
567.459914,0.000000,-8660.409521,536.266849
567.460242,-148.041188,-8808.450710,153.219100
567.460569,-296.082377,-8808.450710,536.266849
567.460897,-518.144159,-9030.512492,1072.533697
567.461224,-740.205942,-8808.450710,76.609550
567.461552,-592.164754,-8808.450710,612.876398
567.461879,-296.082377,-8956.491898,536.266849
567.462207,-296.082377,-8808.450710,536.266849
567.462534,0.000000,-8734.430116,459.657299
567.462862,-518.144159,-8808.450710,766.095498
567.463190,-370.102971,-8586.388927,459.657299
567.463517,-518.144159,-9178.553681,459.657299
567.463845,-296.082377,-9474.636058,383.047749
567.464172,-296.082377,-9622.677246,842.705048
567.464500,74.020594,-9252.574275,1302.362347
567.464827,74.020594,-9622.677246,919.314598
567.465155,74.020594,-9696.697840,842.705048
567.465482,148.041188,-9474.636058,689.485948
567.465810,0.000000,-9474.636058,842.705048
567.466138,0.000000,-9474.636058,995.924147
567.466465,-370.102971,-9326.594869,919.314598
567.466793,-222.061783,-9400.615463,612.876398
567.467120,-370.102971,-9252.574275,689.485948
567.467448,-296.082377,-9178.553681,536.266849
567.467775,-370.102971,-9178.553681,306.438199
567.468103,0.000000,-9252.574275,536.266849
567.468430,-370.102971,-9030.512492,306.438199
567.468758,-296.082377,-9030.512492,153.219100
567.469085,-444.123565,-9104.533087,306.438199
567.469413,-592.164754,-9030.512492,229.828649
567.469741,-296.082377,-9548.656652,0.000000
567.470068,-370.102971,-9400.615463,383.047749
567.470396,-370.102971,-9474.636058,229.828649
567.470723,-444.123565,-9474.636058,459.657299
567.471051,-222.061783,-9400.615463,306.438199
567.471378,0.000000,-9178.553681,459.657299
567.471706,0.000000,-9326.594869,229.828649
567.472033,0.000000,-9178.553681,536.266849
567.472361,-370.102971,-9178.553681,459.657299
567.472688,-370.102971,-9178.553681,612.876398
567.473016,0.000000,-9104.533087,1072.533697
567.473344,-222.061783,-9178.553681,1072.533697
567.473671,-296.082377,-9178.553681,689.485948
567.473999,-296.082377,-8956.491898,766.095498
567.474326,0.000000,-8882.471304,536.266849
567.474654,-370.102971,-8660.409521,536.266849
567.474981,0.000000,-8882.471304,689.485948
567.475309,-370.102971,-8586.388927,842.705048
567.475636,-518.144159,-8660.409521,306.438199
567.475964,-444.123565,-8808.450710,689.485948
567.476292,-444.123565,-8882.471304,689.485948
567.476619,-296.082377,-9104.533087,383.047749
567.476947,-222.061783,-8734.430116,689.485948
567.477274,0.000000,-8956.491898,459.657299
567.477602,-148.041188,-8734.430116,612.876398
567.477929,-222.061783,-9104.533087,689.485948
567.478257,0.000000,-9178.553681,383.047749
567.478584,-296.082377,-8808.450710,919.314598
567.478912,-148.041188,-9030.512492,766.095498
567.479239,0.000000,-9030.512492,536.266849
567.479567,-296.082377,-9104.533087,612.876398
567.479895,0.000000,-8882.471304,229.828649
567.480222,-222.061783,-8808.450710,612.876398
567.480550,0.000000,-8882.471304,383.047749
567.480877,-222.061783,-9178.553681,383.047749
567.481205,0.000000,-9252.574275,612.876398
567.481532,-296.082377,-9178.553681,229.828649
567.481860,-518.144159,-8882.471304,1225.752797
567.482187,-222.061783,-8956.491898,306.438199
567.482515,-222.061783,-9252.574275,766.095498
567.482842,-296.082377,-9104.533087,229.828649
567.483170,-296.082377,-9178.553681,459.657299
567.483498,-370.102971,-8808.450710,306.438199
567.483825,-518.144159,-9252.574275,229.828649
567.484153,-370.102971,-9252.574275,536.266849
567.484480,-444.123565,-9400.615463,536.266849
567.484808,-222.061783,-9474.636058,689.485948
567.485135,-148.041188,-9474.636058,612.876398
567.485463,-370.102971,-9326.594869,1072.533697
567.485790,-370.102971,-9474.636058,612.876398
567.486118,-296.082377,-9474.636058,536.266849
567.486446,-296.082377,-9178.553681,689.485948
567.486773,-148.041188,-9178.553681,766.095498
567.487101,0.000000,-9400.615463,842.705048
567.487428,-370.102971,-9400.615463,612.876398
567.487756,-296.082377,-9400.615463,689.485948
567.488083,0.000000,-9104.533087,383.047749
567.488411,-148.041188,-8956.491898,766.095498
567.488738,0.000000,-8586.388927,459.657299
567.489066,-148.041188,-8734.430116,459.657299
567.489393,-370.102971,-8956.491898,536.266849
567.489721,-370.102971,-9104.533087,459.657299
567.490049,-740.205942,-9104.533087,459.657299
567.490376,-518.144159,-9104.533087,0.000000
567.490704,-296.082377,-9030.512492,766.095498
567.491031,-222.061783,-9178.553681,689.485948
567.491359,-148.041188,-8882.471304,153.219100
567.491686,74.020594,-8956.491898,306.438199
567.492014,0.000000,-8882.471304,459.657299
567.492341,0.000000,-8660.409521,536.266849
567.492669,-296.082377,-9178.553681,536.266849
567.492996,-296.082377,-9252.574275,459.657299
567.493324,0.000000,-9326.594869,459.657299
567.493652,-148.041188,-9252.574275,689.485948
567.493979,0.000000,-8882.471304,919.314598
567.494307,222.061783,-8956.491898,612.876398
567.494634,0.000000,-8660.409521,459.657299
567.494962,0.000000,-8660.409521,689.485948
567.495289,-296.082377,-8882.471304,459.657299
567.495617,-296.082377,-8808.450710,842.705048
567.495944,-222.061783,-9030.512492,536.266849
567.496272,-370.102971,-9252.574275,842.705048
567.496600,-592.164754,-9104.533087,689.485948
567.496927,-444.123565,-9252.574275,689.485948
567.497255,0.000000,-8734.430116,919.314598
567.497582,-148.041188,-8808.450710,612.876398
567.497910,0.000000,-8808.450710,612.876398
567.498237,-148.041188,-9178.553681,536.266849
567.498565,0.000000,-9474.636058,766.095498
567.498892,0.000000,-9696.697840,1149.143247
567.499220,-740.205942,-9030.512492,1072.533697
567.499547,-592.164754,-9622.677246,1072.533697
567.499875,-444.123565,-9696.697840,919.314598
567.500203,-296.082377,-9548.656652,612.876398
